is_manipulated,manipulation_angle,online_feedback,endpoint_feedback,was_restarted,is_judged,label,too_slow,manipulation_type,rt,target_angle,reach_angle,diff_angle,target_dist,trial,id,exp_version,judgement_rt,judgement_decision_time,judgement_loc,judgement_width,judgement_score
0,0,1,1,0,0,BASELINE,0,NONE,0.651654005,90,93.5190794,3.5190794,70,1,msl000394,v2,0,0,0,0,0
0,0,1,1,0,0,BASELINE,0,NONE,0.377016783,45,43.99039762,-1.00960238,70,2,msl000394,v2,0,0,0,0,0
0,0,1,1,0,0,BASELINE,0,NONE,0.308267832,180,-174.926761,5.073239012,70,3,msl000394,v2,0,0,0,0,0
0,0,1,1,0,0,BASELINE,0,NONE,0.548897982,0,6.181810216,6.181810216,70,4,msl000394,v2,0,0,0,0,0
0,0,1,1,0,0,BASELINE,0,NONE,0.421689987,135,145.8421287,10.84212868,70,5,msl000394,v2,0,0,0,0,0
0,0,1,1,0,0,BASELINE,0,NONE,0.471618891,-90,-92.00254381,-2.002543808,70,6,msl000394,v2,0,0,0,0,0
0,0,1,1,0,0,BASELINE,0,NONE,0.424158812,-45,-42.46001325,2.539986751,70,7,msl000394,v2,0,0,0,0,0
0,0,1,1,0,0,BASELINE,0,NONE,0.349863052,-135,-142.4638983,-7.463898274,70,8,msl000394,v2,0,0,0,0,0
0,0,1,1,0,0,BASELINE,0,NONE,0.325126886,-45,-36.33093233,8.669067669,70,9,msl000394,v2,0,0,0,0,0
0,0,1,1,0,0,BASELINE,0,NONE,0.389010906,-135,-149.3637502,-14.3637502,70,10,msl000394,v2,0,0,0,0,0
0,0,1,1,0,0,BASELINE,0,NONE,0.381236076,135,139.6649787,4.664978727,70,11,msl000394,v2,0,0,0,0,0
0,0,1,1,0,0,BASELINE,0,NONE,0.371937037,-90,-85.94684104,4.053158965,70,12,msl000394,v2,0,0,0,0,0
0,0,1,1,0,0,BASELINE,0,NONE,0.273920059,0,9.515275138,9.515275138,70,13,msl000394,v2,0,0,0,0,0
0,0,1,1,0,0,BASELINE,0,NONE,0.360316992,180,-173.5652291,6.434770944,70,14,msl000394,v2,0,0,0,0,0
0,0,1,1,0,0,BASELINE,0,NONE,0.36994791,45,43.85795028,-1.142049718,70,15,msl000394,v2,0,0,0,0,0
0,0,1,1,0,0,BASELINE,0,NONE,0.385657787,90,95.49229708,5.492297076,70,16,msl000394,v2,0,0,0,0,0
0,0,1,1,0,0,BASELINE,0,NONE,0.300091982,-45,-54.54746349,-9.547463487,70,17,msl000394,v2,0,0,0,0,0
0,0,1,1,0,0,BASELINE,0,NONE,0.301251173,0,2.083221641,2.083221641,70,18,msl000394,v2,0,0,0,0,0
0,0,1,1,0,0,BASELINE,0,NONE,0.550934076,90,86.94335196,-3.056648042,70,19,msl000394,v2,0,0,0,0,0
0,0,1,1,0,0,BASELINE,0,NONE,0.420772076,-135,-131.0305612,3.969438757,70,20,msl000394,v2,0,0,0,0,0
0,0,1,1,0,0,BASELINE,0,NONE,0.36552906,180,-171.3520606,8.647939434,70,21,msl000394,v2,0,0,0,0,0
0,0,1,1,0,0,BASELINE,0,NONE,0.445604086,135,143.4486463,8.448646283,70,22,msl000394,v2,0,0,0,0,0
0,0,1,1,0,0,BASELINE,0,NONE,0.307080984,-90,-89.28530792,0.714692079,70,23,msl000394,v2,0,0,0,0,0
0,0,1,1,0,0,BASELINE,0,NONE,0.306095839,45,38.72264032,-6.277359676,70,24,msl000394,v2,0,0,0,0,0
0,0,1,1,0,1,BASELINE_AIM,0,NONE,0.353900194,90,80.68042964,-9.319570362,70,25,msl000394,v2,2.091481209,3.683489323,-180,3.626226807,0
0,0,1,1,0,1,BASELINE_AIM,0,NONE,0.384114027,135,144.3187599,9.318759881,70,26,msl000394,v2,0.298515081,1.970561266,-135,17.30482178,83
0,0,1,1,0,1,BASELINE_AIM,0,NONE,0.423872948,180,176.9892565,-3.010743518,70,27,msl000394,v2,0.347471952,1.787518978,-90,2.958978271,83
0,0,1,1,0,1,BASELINE_AIM,0,NONE,0.430345058,-90,-93.55372202,-3.553722021,70,28,msl000394,v2,0.258791447,1.82683444,0,3.959851074,83
0,0,1,1,0,1,BASELINE_AIM,0,NONE,0.30187583,-135,-136.559435,-1.559435002,70,29,msl000394,v2,0.622876406,0.902859211,-45,50,133
0,0,1,1,0,1,BASELINE_AIM,0,NONE,0.249696016,0,-0.68522078,-0.68522078,70,30,msl000394,v2,0.057113886,1.457168818,90,13.63495483,220
0,0,1,1,0,1,BASELINE_AIM,0,NONE,0.333220005,45,51.56025388,6.560253881,70,31,msl000394,v2,0.258485794,1.634523869,135,5.96159668,315
0,0,1,1,0,1,BASELINE_AIM,1,NONE,0.437042952,-45,-59.41169266,-14.41169266,70,32,msl000394,v2,0.532528639,2.116585493,45,8.296966553,315
0,0,1,1,0,1,BASELINE_AIM,0,NONE,0.222735167,90,86.88381571,-3.116184289,70,33,msl000394,v2,0.314712286,1.626758337,-180,8.296966553,407
0,0,1,1,0,1,BASELINE_AIM,0,NONE,0.431401014,45,35.68875675,-9.311243254,70,34,msl000394,v2,0.271863937,1.455861807,135,10.63233643,407
0,0,1,1,0,1,BASELINE_AIM,0,NONE,0.435292959,-90,-99.57278765,-9.572787651,70,35,msl000394,v2,0.247461319,1.495462418,0,7.629718018,500
0,0,1,1,0,1,BASELINE_AIM,0,NONE,0.391443968,0,-6.630946878,-6.630946878,70,36,msl000394,v2,0.21390295,1.453948021,90,10.63233643,590
0,0,1,1,0,1,BASELINE_AIM,0,NONE,0.472518921,-45,-44.37335241,0.626647594,70,37,msl000394,v2,0.422770262,1.550779343,45,14.30220337,676
0,0,1,1,0,1,BASELINE_AIM,1,NONE,0.574798107,-135,-136.2607409,-1.260740926,70,38,msl000394,v2,0.24726963,1.431279659,-45,10.63233643,676
0,0,1,1,0,1,BASELINE_AIM,0,NONE,0.354847908,135,139.0443096,4.044309634,70,39,msl000394,v2,0.302053928,1.350059748,-135,14.63582764,762
0,0,1,1,0,1,BASELINE_AIM,0,NONE,0.335934162,180,170.8737053,-9.126294733,70,40,msl000394,v2,0.149990797,1.374037743,-90,11.9668335,762
0,0,1,1,0,1,BASELINE_AIM,0,NONE,0.258560896,0,-19.14422166,-19.14422166,70,41,msl000394,v2,0.394207478,1.410195589,90,19.97381592,762
0,0,1,1,0,1,BASELINE_AIM,1,NONE,0.503834963,135,133.3953725,-1.604627468,70,42,msl000394,v2,0.394478083,1.458441019,-135,20.64106445,762
0,0,1,1,0,1,BASELINE_AIM,0,NONE,0.299500942,90,87.0629126,-2.937087404,70,43,msl000394,v2,0.170374632,1.34636569,-180,11.29958496,851
0,0,1,1,0,1,BASELINE_AIM,0,NONE,0.398199081,-45,-52.59099281,-7.590992809,70,44,msl000394,v2,0.713464022,2.00148201,45,5.96159668,851
0,0,1,1,0,1,BASELINE_AIM,0,NONE,0.48157692,180,179.9783401,-0.021659856,70,45,msl000394,v2,0.296282768,1.560290813,-90,10.96596069,851
0,0,1,1,0,1,BASELINE_AIM,0,NONE,0.421103954,-90,-95.87919272,-5.879192717,70,46,msl000394,v2,0.229077578,1.469070673,0,7.963342285,944
0,0,1,1,0,1,BASELINE_AIM,0,NONE,0.424149036,-135,-152.1677108,-17.16771083,70,47,msl000394,v2,0.074461937,1.282469988,-45,13.63495483,944
0,0,1,1,0,1,BASELINE_AIM,0,NONE,0.253108025,45,47.3349825,2.334982496,70,48,msl000394,v2,0.110227108,1.254226923,135,13.63495483,1031
0,0,1,1,0,1,BASELINE_AIM,0,NONE,0.342051983,90,96.19777966,6.197779659,70,49,msl000394,v2,1.042497396,2.186545372,-180,10.96596069,1121
0,0,1,1,0,1,BASELINE_AIM,0,NONE,0.345927,0,-6.628844226,-6.628844226,70,50,msl000394,v2,0.563676596,1.779726505,90,9.631463623,1121
0,0,1,1,0,1,BASELINE_AIM,0,NONE,0.273642063,-135,-129.0320727,5.967927287,70,51,msl000394,v2,0.20465064,1.468663454,-45,18.30569458,1203
0,0,1,1,0,1,BASELINE_AIM,0,NONE,0.468456984,180,168.8114061,-11.18859388,70,52,msl000394,v2,0.275403261,1.24341011,-90,18.97294312,1285
0,0,1,1,0,1,BASELINE_AIM,0,NONE,0.396238089,-90,-82.15173718,7.848262823,70,53,msl000394,v2,0.240629196,0.792619228,0,50,1335
0,0,1,1,0,1,BASELINE_AIM,0,NONE,0.439795971,135,149.7019681,14.70196806,70,54,msl000394,v2,0.375252485,1.455302477,-135,14.30220337,1421
0,0,1,1,0,1,BASELINE_AIM,0,NONE,0.357214928,-45,-49.36796129,-4.367961294,70,55,msl000394,v2,0.411915302,1.531923294,45,13.63495483,1508
0,0,1,1,0,1,BASELINE_AIM,0,NONE,0.282369137,45,33.65006436,-11.34993564,70,56,msl000394,v2,0.182399988,1.350400925,135,14.63582764,1594
0,0,1,1,0,1,BASELINE_AIM,0,NONE,0.475949049,-45,-51.67878125,-6.678781249,70,57,msl000394,v2,0.280769587,1.440734625,45,10.96596069,1684
0,0,1,1,0,1,BASELINE_AIM,0,NONE,0.38595891,-135,-133.3576445,1.642355486,70,58,msl000394,v2,0.117412567,1.213367701,-45,13.9685791,1771
0,0,1,1,0,1,BASELINE_AIM,1,NONE,0.361954927,-90,-84.90630826,5.093691737,70,59,msl000394,v2,0.212839365,1.316797256,0,14.9694519,1771
0,0,1,1,0,1,BASELINE_AIM,0,NONE,0.210362196,45,41.02690538,-3.973094624,70,60,msl000394,v2,0.30460906,1.376551867,135,14.30220337,1857
0,0,1,1,0,1,BASELINE_AIM,0,NONE,0.193331003,135,142.8410533,7.84105328,70,61,msl000394,v2,0.271007776,1.511009932,-135,8.63059082,1949
0,0,1,1,0,1,BASELINE_AIM,0,NONE,0.470828056,180,179.5360555,-0.463944478,70,62,msl000394,v2,0.196821451,1.300858259,-90,11.9668335,1949
0,0,1,1,0,1,BASELINE_AIM,0,NONE,0.285547972,90,85.87295406,-4.127045938,70,63,msl000394,v2,0.266807318,1.258793354,-180,15.97032471,2034
0,0,1,1,0,1,BASELINE_AIM,0,NONE,0.284472942,0,-4.16193109,-4.16193109,70,64,msl000394,v2,0.094948769,1.230912685,90,10.63233643,2124
0,0,1,1,0,1,BASELINE_AIM,0,NONE,0.366667032,-90,-83.35982826,6.64017174,70,65,msl000394,v2,0.297734976,1.393759966,0,13.30133057,2124
0,0,1,1,0,1,BASELINE_AIM,0,NONE,0.225883007,180,-154.4905979,25.50940212,70,66,msl000394,v2,0.224593639,1.392577648,-90,12.63408203,2124
0,0,1,1,0,1,BASELINE_AIM,0,NONE,0.275204897,-135,-132.3242826,2.675717362,70,67,msl000394,v2,0.206946135,1.390944004,-45,12.63408203,2212
0,0,1,1,0,1,BASELINE_AIM,0,NONE,0.243571043,0,-8.430679243,-8.430679243,70,68,msl000394,v2,0.112321854,1.168332815,90,14.9694519,2298
0,0,1,1,0,1,BASELINE_AIM,0,NONE,0.443649054,90,77.70185336,-12.29814664,70,69,msl000394,v2,0.321035624,1.505072594,-180,10.29871216,2388
0,0,1,1,0,1,BASELINE_AIM,0,NONE,0.279911995,45,46.81203451,1.812034506,70,70,msl000394,v2,0.514278173,1.722268105,135,7.963342285,2388
0,0,1,1,0,1,BASELINE_AIM,0,NONE,0.348564863,-45,-35.32377934,9.676220656,70,71,msl000394,v2,0.294513702,1.366498709,45,13.30133057,2475
0,0,1,1,0,1,BASELINE_AIM,0,NONE,0.448521852,135,140.037042,5.03704201,70,72,msl000394,v2,0.458161831,1.602124929,-135,12.30045776,2563
1,30,1,1,0,1,PERTURBATION,0,ROTATION,0.272083044,-135,-137.7703785,-2.770378537,70,73,msl000394,v2,0.497632504,1.593713522,-45,10.63233643,2563
1,30,1,1,0,1,PERTURBATION,0,ROTATION,0.195402145,-90,-98.91438677,-8.914386767,70,74,msl000394,v2,0.255982161,1.727953196,0,9.297839355,2563
1,30,1,1,0,1,PERTURBATION,0,ROTATION,0.525185108,180,-151.2934213,28.70657872,70,75,msl000394,v2,2.119256258,5.335223198,-113.0200745,20.64106445,2563
1,30,1,1,0,1,PERTURBATION,0,ROTATION,0.3666749,0,-31.97622331,-31.97622331,70,76,msl000394,v2,2.158971786,5.350985765,63.810495,34.65328369,2629
1,30,1,1,0,1,PERTURBATION,0,ROTATION,0.114660025,135,153.2625935,18.26259352,70,77,msl000394,v2,12.75951481,17.3114779,-116.6506653,39.32402344,2629
1,30,1,1,0,1,PERTURBATION,0,ROTATION,0.303004026,-45,-17.77556129,27.22443871,70,78,msl000394,v2,2.717632771,4.301619768,64.51701965,50,2629
1,30,1,1,0,1,PERTURBATION,0,ROTATION,0.398887157,90,123.6691772,33.66917715,70,79,msl000394,v2,0.579279661,4.227341652,-149.3065674,28.98167114,2629
1,30,1,1,0,1,PERTURBATION,0,ROTATION,0.396152973,45,58.74343645,13.74343645,70,80,msl000394,v2,0.896649361,3.368690491,164.8593719,37.32227783,2629
1,30,1,1,0,1,PERTURBATION,0,ROTATION,0.389884949,-90,-46.18727394,43.81272606,70,81,msl000394,v2,0.842385292,3.658505201,33.86286316,25.64542847,2629
1,30,1,1,0,1,PERTURBATION,0,ROTATION,0.415004969,135,146.4174964,11.41749642,70,82,msl000394,v2,0.518623829,2.974674702,-101.1371368,34.65328369,2629
1,30,1,1,0,1,PERTURBATION,0,ROTATION,0.382273912,-45,-30.68876144,14.31123856,70,83,msl000394,v2,0.345376253,1.761384249,72.02356567,41.65939331,2629
1,30,1,1,0,1,PERTURBATION,0,ROTATION,0.191715002,-135,-117.4061031,17.59389692,70,84,msl000394,v2,0.071645498,1.615649462,-19.64455566,27.98079834,2629
1,30,1,1,0,1,PERTURBATION,0,ROTATION,0.491029978,0,17.61274437,17.61274437,70,85,msl000394,v2,0.856304884,2.208318949,113.8541351,50,2629
1,30,1,1,0,1,PERTURBATION,0,ROTATION,0.112236977,45,50.85410177,5.854101767,70,86,msl000394,v2,2.037713528,4.709709644,160.0218201,50,2629
1,30,1,1,0,1,PERTURBATION,0,ROTATION,0.101331949,180,-132.0098156,47.9901844,70,87,msl000394,v2,2.311770439,3.903849363,-59.64019165,28.98167114,2629
1,30,1,1,0,1,PERTURBATION,0,ROTATION,0.278083086,90,127.4912959,37.49129586,70,88,msl000394,v2,0.081014872,1.225001812,-151.1415009,43.32751465,2629
1,30,1,1,0,1,PERTURBATION,0,ROTATION,0.213413,45,60.0132467,15.0132467,70,89,msl000394,v2,1.403454542,3.651462555,165.8602448,63.01134644,2629
1,30,1,1,0,1,PERTURBATION,0,ROTATION,0.164326906,180,-135.939976,44.06002405,70,90,msl000394,v2,0.586572886,2.354587793,-56.47076111,28.31442261,2629
1,30,1,1,0,1,PERTURBATION,0,ROTATION,0.56801796,-45,-46.7182101,-1.718210104,70,91,msl000394,v2,0.652373552,2.284435511,45,89.70128784,2640
1,30,1,1,0,1,PERTURBATION,0,ROTATION,1.025439978,-90,-121.4354512,-31.4354512,70,92,msl000394,v2,2.584988117,4.968991041,-25.02182007,39.65764771,2701
1,30,1,1,0,1,PERTURBATION,0,ROTATION,0.587491035,135,163.4729422,28.47294217,70,93,msl000394,v2,1.043854713,5.051928759,-111.1458649,71.68557739,2701
1,30,1,1,0,1,PERTURBATION,0,ROTATION,0.610677004,0,-42.2441851,-42.2441851,70,94,msl000394,v2,0.976984024,4.736994982,64.8113678,63.3449707,2738
1,30,1,1,0,1,PERTURBATION,0,ROTATION,0.486941099,-135,-160.9177843,-25.91778429,70,95,msl000394,v2,0.37856245,2.026577473,-67.6864502,43.32751465,2795
1,30,1,1,0,1,PERTURBATION,0,ROTATION,0.46617794,90,58.89895268,-31.10104732,70,96,msl000394,v2,0.594710112,2.634665012,-199.8506439,36.6550293,2859
1,30,1,1,0,1,PERTURBATION,0,ROTATION,0.225518942,135,110.7653051,-24.23469492,70,97,msl000394,v2,0.289132357,2.585188389,-149.8462799,58.00698242,2901
1,30,1,1,0,1,PERTURBATION,0,ROTATION,0.396743059,0,-31.26440159,-31.26440159,70,98,msl000394,v2,0.48768115,3.551697016,59.30656738,26.64630127,2975
1,30,1,1,0,1,PERTURBATION,0,ROTATION,0.191988945,-135,-165.7340187,-30.73401868,70,99,msl000394,v2,0.560157061,3.992235184,-68.687323,35.98778076,3040
1,30,1,1,0,1,PERTURBATION,0,ROTATION,0.397686005,-45,-66.03338869,-21.03338869,70,100,msl000394,v2,0.48382926,5.339825392,23.14761047,26.97992554,3114
1,30,1,1,0,1,PERTURBATION,0,ROTATION,0.651037931,-90,-127.5580343,-37.55803433,70,101,msl000394,v2,0.244363785,1.572347879,-25.1886322,35.65415649,3179
1,30,1,1,0,1,PERTURBATION,0,ROTATION,0.535351038,45,2.196250799,-42.8037492,70,102,msl000394,v2,0.317131042,2.245111942,98.80176697,61.00960083,3218
1,30,1,1,0,1,PERTURBATION,0,ROTATION,0.07634306,180,130.3971224,-49.60287757,70,103,msl000394,v2,0.050131798,1.882132769,-119.6925598,26.64630127,3218
1,30,1,1,0,1,PERTURBATION,0,ROTATION,0.120251179,90,59.21494935,-30.78505065,70,104,msl000394,v2,0.642589808,1.866623878,-202.5196381,33.65241089,3285
1,30,1,1,0,1,PERTURBATION,0,ROTATION,0.191262007,90,46.54023459,-43.45976541,70,105,msl000394,v2,0.357834578,2.485835552,-206.189505,7.29609375,3285
1,30,1,1,0,1,PERTURBATION,0,ROTATION,0.391913891,-135,-173.3104965,-38.3104965,70,106,msl000394,v2,0.267273188,1.971235037,-81.0314209,35.32053223,3285
1,30,1,1,0,1,PERTURBATION,0,ROTATION,0.448014975,180,143.9377524,-36.06224756,70,107,msl000394,v2,0.56965661,2.049659729,-110.1842682,31.65066528,3354
1,30,1,1,0,1,PERTURBATION,0,ROTATION,0.393273115,-90,-140.7598377,-50.75983767,70,108,msl000394,v2,0.482986212,2.12298131,-19.18339539,24.97817993,3430
1,30,1,1,0,1,PERTURBATION,0,ROTATION,0.448427916,0,-22.77897151,-22.77897151,70,109,msl000394,v2,0.048992157,1.881023169,61.97556152,25.97905273,3505
1,30,1,1,0,1,PERTURBATION,0,ROTATION,0.411829948,-45,-70.96798543,-25.96798543,70,110,msl000394,v2,0.373511314,2.269502163,18.14324646,10.63233643,3595
1,30,1,1,0,1,PERTURBATION,0,ROTATION,0.378093004,135,102.0560186,-32.94398137,70,111,msl000394,v2,0.243931055,2.419898987,-164.8593719,3.959851074,3595
1,30,1,1,0,1,PERTURBATION,0,ROTATION,0.22018981,45,1.25833369,-43.74166631,70,112,msl000394,v2,0.089506626,1.865529537,106.8087494,18.63931885,3595
1,30,1,1,0,1,PERTURBATION,0,ROTATION,0.408329964,180,134.5237794,-45.47622057,70,113,msl000394,v2,0.762813568,2.43481946,-119.5257477,24.3109314,3595
1,30,1,1,0,1,PERTURBATION,0,ROTATION,0.362211943,0,-33.09645961,-33.09645961,70,114,msl000394,v2,0.046725035,1.894732237,59.80700378,16.63757324,3679
1,30,1,1,0,1,PERTURBATION,0,ROTATION,0.278684855,90,44.3874492,-45.6125508,70,115,msl000394,v2,0.211414099,2.003415108,-209.1921234,15.30307617,3679
1,30,1,1,0,1,PERTURBATION,0,ROTATION,0.380082846,45,4.053426427,-40.94657357,70,116,msl000394,v2,0.152543783,2.072575808,104.8070038,17.30482178,3679
1,30,1,1,0,1,PERTURBATION,1,ROTATION,0.29956007,-135,-170.8547387,-35.85473875,70,117,msl000394,v2,0.389696598,2.037689686,-78.52923889,26.64630127,3679
1,30,1,1,0,1,PERTURBATION,0,ROTATION,0.38776803,-90,-123.1315094,-33.1315094,70,118,msl000394,v2,0.060317039,1.804371119,-29.02531128,16.30394897,3679
1,30,1,1,0,1,PERTURBATION,1,ROTATION,0.338153124,-45,-74.72682506,-29.72682506,70,119,msl000394,v2,0.700149298,2.220221281,22.14673767,22.64281006,3679
1,30,1,1,0,1,PERTURBATION,0,ROTATION,0.401648045,135,116.8249379,-18.17506215,70,120,msl000394,v2,0.072372437,1.952371359,-161.0226929,9.297839355,3770
1,30,1,1,0,1,PERTURBATION,0,ROTATION,0.441943169,-45,-84.17859535,-39.17859535,70,121,msl000394,v2,0.154002428,1.962106466,15.80787659,17.97207031,3853
1,30,1,1,0,1,PERTURBATION,0,ROTATION,0.428355217,135,105.815952,-29.18404798,70,122,msl000394,v2,0.157339334,2.301436424,-162.3571899,20.97468872,3933
1,30,1,1,0,1,PERTURBATION,0,ROTATION,0.48823905,90,52.41887122,-37.58112878,70,123,msl000394,v2,0.122882605,1.898967743,-209.6925598,20.97468872,3933
1,30,1,1,0,1,PERTURBATION,0,ROTATION,0.424138069,-135,-160.5588847,-25.55888469,70,124,msl000394,v2,0.437523842,2.533538818,-67.85326233,13.63495483,4020
1,30,1,1,0,1,PERTURBATION,0,ROTATION,0.427105904,180,140.0400157,-39.95998426,70,125,msl000394,v2,0.179745913,2.243752956,-110.6847046,14.30220337,4106
1,30,1,1,0,1,PERTURBATION,0,ROTATION,0.463369131,-90,-139.6096301,-49.60963009,70,126,msl000394,v2,0.392090321,2.536167383,-26.68994141,15.30307617,4106
1,30,1,1,0,1,PERTURBATION,0,ROTATION,0.464109898,45,14.89600921,-30.10399079,70,127,msl000394,v2,0.240548849,2.192584753,115.9834167,3.959851074,4106
1,30,1,1,0,1,PERTURBATION,0,ROTATION,0.46814394,0,-22.2680161,-22.2680161,70,128,msl000394,v2,0.432239532,2.208248377,71.15022888,11.63320923,4195
1,30,1,1,0,1,PERTURBATION,0,ROTATION,0.594366074,90,74.14118001,-15.85881999,70,129,msl000394,v2,1.689637423,3.729637384,-205.0218201,10.29871216,4195
1,30,1,1,0,1,PERTURBATION,0,ROTATION,0.792670012,0,-29.09176128,-29.09176128,70,130,msl000394,v2,0.367642641,2.199666739,65.97905273,11.9668335,4284
1,30,1,1,0,1,PERTURBATION,0,ROTATION,0.510715961,180,156.0336528,-23.96634716,70,131,msl000394,v2,0.810005665,2.690056801,-115.1886322,6.628845215,4378
1,30,1,1,0,1,PERTURBATION,0,ROTATION,0.717536926,-90,-123.7880785,-33.78807852,70,132,msl000394,v2,0.291329384,2.227332354,-22.18601379,3.626226807,4378
1,30,1,1,0,1,PERTURBATION,0,ROTATION,0.494564056,-135,-164.8689314,-29.86893136,70,133,msl000394,v2,0.263344288,2.199341297,-72.02356567,11.9668335,4378
1,30,1,1,0,1,PERTURBATION,0,ROTATION,0.539872885,45,20.94036389,-24.05963611,70,134,msl000394,v2,0.133634806,2.005690813,108.6436829,10.29871216,4468
1,30,1,1,0,1,PERTURBATION,0,ROTATION,0.413394928,-45,-87.44902304,-42.44902304,70,135,msl000394,v2,0.09399581,1.87800169,15.80787659,13.63495483,4468
1,30,1,1,0,1,PERTURBATION,0,ROTATION,0.314127207,135,109.9233566,-25.07664338,70,136,msl000394,v2,0.361154795,2.10512495,-156.0183289,7.29609375,4561
1,30,1,1,0,1,PERTURBATION,0,ROTATION,0.414545059,135,106.3698006,-28.63019943,70,137,msl000394,v2,0.548648357,2.156663418,-156.0183289,15.30307617,4646
1,30,1,1,0,1,PERTURBATION,0,ROTATION,0.546344995,45,12.0593439,-32.9406561,70,138,msl000394,v2,0.492771626,2.388790607,106.6419373,9.965087891,4646
1,30,1,1,0,1,PERTURBATION,0,ROTATION,0.428620815,-135,-178.9654555,-43.96545553,70,139,msl000394,v2,0.105029106,2.169043064,-73.19125061,2.625354004,4646
1,30,1,1,0,1,PERTURBATION,0,ROTATION,0.318506002,-45,-83.74664603,-38.74664603,70,140,msl000394,v2,0.078657627,1.918705702,19.3109314,8.964215088,4738
1,30,1,1,0,1,PERTURBATION,0,ROTATION,0.476512909,180,134.311843,-45.68815696,70,141,msl000394,v2,0.186783075,1.962759018,-117.3571899,12.30045776,4738
1,30,1,1,0,1,PERTURBATION,0,ROTATION,0.448004961,0,-21.77434104,-21.77434104,70,142,msl000394,v2,0.337288857,2.041312695,71.48385315,6.962469482,4738
1,30,1,1,0,1,PERTURBATION,0,ROTATION,0.520018101,90,62.37977842,-27.62022158,70,143,msl000394,v2,0.111275434,1.799285412,-197.6820862,4.960723877,4834
1,30,1,1,0,1,PERTURBATION,0,ROTATION,0.473797083,-90,-132.8548458,-42.8548458,70,144,msl000394,v2,0.362887859,1.986897707,-16.01396484,8.296966553,4834
1,30,1,1,0,1,PERTURBATION,0,ROTATION,0.460111141,45,9.46730912,-35.53269088,70,145,msl000394,v2,0.162392139,1.674428225,116.4838531,14.63582764,4920
1,30,1,1,0,1,PERTURBATION,1,ROTATION,0.454552889,90,63.51225704,-26.48774296,70,146,msl000394,v2,0.013355732,1.661356688,-199.8506439,10.96596069,4920
1,30,1,1,0,1,PERTURBATION,0,ROTATION,0.425653934,-45,-59.09457027,-14.09457027,70,147,msl000394,v2,0.025021315,1.777027369,27.65153809,3.959851074,4920
1,30,1,1,0,1,PERTURBATION,1,ROTATION,0.463530064,0,-32.28722214,-32.28722214,70,148,msl000394,v2,0.488717794,1.968737841,73.98603516,28.64804688,4920
1,30,1,1,0,1,PERTURBATION,0,ROTATION,0.551841021,-135,-173.772707,-38.77270702,70,149,msl000394,v2,0.653518677,2.245491743,-66.18514099,15.30307617,4920
1,30,1,1,0,1,PERTURBATION,0,ROTATION,0.497150898,180,148.5952047,-31.40479525,70,150,msl000394,v2,0.336464405,1.872476339,-112.5196381,17.63844604,4920
1,30,1,1,0,1,PERTURBATION,0,ROTATION,0.367637157,135,114.0789713,-20.92102867,70,151,msl000394,v2,0.132637024,1.692686081,-160.8558807,19.30656738,5001
1,30,1,1,0,1,PERTURBATION,0,ROTATION,0.334825993,-90,-127.4189459,-37.41894592,70,152,msl000394,v2,0.092350483,1.676418543,-20.35108032,12.63408203,5001
1,30,1,1,0,1,PERTURBATION,0,ROTATION,0.148115158,180,147.7225413,-32.27745869,70,153,msl000394,v2,0.580222845,2.404239893,-114.1877594,10.29871216,5001
1,30,1,1,0,1,PERTURBATION,0,ROTATION,0.431074142,-45,-63.57562905,-18.57562905,70,154,msl000394,v2,0.080583811,1.704584837,29.31965942,9.965087891,5001
1,30,1,1,0,1,PERTURBATION,0,ROTATION,0.505175114,0,-37.9952463,-37.9952463,70,155,msl000394,v2,0.244089365,1.980144501,71.98428955,6.962469482,5095
1,30,1,1,0,1,PERTURBATION,0,ROTATION,0.485867023,45,18.0575461,-26.9424539,70,156,msl000394,v2,1.631183863,4.927207947,112.6471741,19.64019165,5176
1,30,1,1,0,1,PERTURBATION,0,ROTATION,0.207925797,-90,-133.4425302,-43.44253023,70,157,msl000394,v2,0.198086262,1.862135172,-21.01832886,11.63320923,5176
1,30,1,1,0,1,PERTURBATION,0,ROTATION,0.220530033,90,48.55716005,-41.44283995,70,158,msl000394,v2,0.519367218,2.271377325,-205.1886322,12.63408203,5176
1,30,1,1,0,1,PERTURBATION,0,ROTATION,0.285721064,135,121.0003339,-13.99966607,70,159,msl000394,v2,0.381411552,1.533424616,-161.8567535,39.99127197,5237
1,30,1,1,0,1,PERTURBATION,0,ROTATION,0.391040802,-135,-164.738465,-29.73846501,70,160,msl000394,v2,0.161949158,1.585950136,-70.6890686,24.97817993,5313
1,30,1,1,0,1,PERTURBATION,0,ROTATION,0.452259064,0,-26.59521909,-26.59521909,70,161,msl000394,v2,0.300345659,2.132363558,63.64368286,10.29871216,5403
1,30,1,1,0,1,PERTURBATION,0,ROTATION,0.314445972,135,106.937624,-28.06237597,70,162,msl000394,v2,1.133348227,2.90935421,-158.687323,9.631463623,5494
1,30,1,1,0,1,PERTURBATION,0,ROTATION,0.246072054,90,56.27514701,-33.72485299,70,163,msl000394,v2,0.293918133,2.101989031,-202.5196381,9.631463623,5494
1,30,1,1,0,1,PERTURBATION,1,ROTATION,0.305068016,-45,-80.38487537,-35.38487537,70,164,msl000394,v2,0.005460978,1.893460989,17.47599792,8.63059082,5494
1,30,1,1,0,1,PERTURBATION,0,ROTATION,0.376302958,-135,-153.866794,-18.86679397,70,165,msl000394,v2,0.112806797,1.896851778,-67.6864502,7.629718018,5587
1,30,1,1,0,1,PERTURBATION,0,ROTATION,0.301527977,-90,-133.6491578,-43.64915782,70,166,msl000394,v2,0.278687239,2.086711168,-24.1877594,7.629718018,5587
1,30,1,1,0,1,PERTURBATION,0,ROTATION,0.433732033,180,167.6064879,-12.3935121,70,167,msl000394,v2,0.391905785,2.99187088,-90,91.70303345,5596
1,30,1,1,0,1,PERTURBATION,0,ROTATION,0.274552822,45,4.538233547,-40.46176645,70,168,msl000394,v2,0.203971386,1.99600029,110.6454285,8.296966553,5596
1,30,1,1,0,1,PERTURBATION,0,ROTATION,0.249443054,135,94.72549514,-40.27450486,70,169,msl000394,v2,0.282483339,2.106427193,-157.1860138,17.30482178,5596
1,30,1,1,0,1,PERTURBATION,0,ROTATION,0.321888924,180,127.6527701,-52.34722991,70,170,msl000394,v2,0.067334652,1.771355629,-111.6855774,17.63844604,5596
1,30,1,1,0,1,PERTURBATION,0,ROTATION,0.475600004,45,19.79525056,-25.20474944,70,171,msl000394,v2,0.254886389,2.606898546,108.810495,13.9685791,5683
1,30,1,1,0,1,PERTURBATION,0,ROTATION,0.425344944,-90,-139.093472,-49.09347195,70,172,msl000394,v2,0.099997759,1.683998585,-25.02182007,17.63844604,5683
1,30,1,1,0,1,PERTURBATION,0,ROTATION,0.290767908,-135,-144.1731466,-9.173146571,70,173,msl000394,v2,0.26698041,1.938993454,-70.35544434,14.63582764,5769
1,30,1,1,0,1,PERTURBATION,0,ROTATION,0.236601114,0,-36.5518404,-36.5518404,70,174,msl000394,v2,0.032316685,1.752372742,65.3118042,11.63320923,5858
1,30,1,1,0,1,PERTURBATION,0,ROTATION,0.168196917,90,49.7898822,-40.2101178,70,175,msl000394,v2,0.106560469,1.922534466,-206.8567535,9.965087891,5858
1,30,1,1,0,1,PERTURBATION,1,ROTATION,0.388783932,-45,-73.30015281,-28.30015281,70,176,msl000394,v2,0.369886637,1.849898577,18.31005859,23.31005859,5858
1,30,1,1,0,1,PERTURBATION,0,ROTATION,0.345988989,90,49.96955296,-40.03044704,70,177,msl000394,v2,0.091818094,1.883821249,-202.6864502,8.964215088,5858
1,30,1,1,0,1,PERTURBATION,0,ROTATION,0.459650993,-90,-120.711767,-30.71176695,70,178,msl000394,v2,0.006896019,1.598949194,-21.68557739,14.9694519,5858
1,30,1,1,0,1,PERTURBATION,0,ROTATION,0.183094978,180,137.066315,-42.93368501,70,179,msl000394,v2,0.592472792,2.336492777,-116.6899414,14.9694519,5858
1,30,1,1,0,1,PERTURBATION,1,ROTATION,0.477535009,-135,172.4040058,-52.59599416,70,180,msl000394,v2,0.088956594,1.848956585,-74.52574768,16.63757324,5858
1,30,1,1,0,1,PERTURBATION,0,ROTATION,0.328920841,-45,-97.21789457,-52.21789457,70,181,msl000394,v2,0.001197815,1.473267794,22.81398621,19.97381592,5858
1,30,1,1,0,1,PERTURBATION,0,ROTATION,0.29143405,135,96.70112706,-38.29887294,70,182,msl000394,v2,0.086618662,1.670589447,-157.3528259,14.9694519,5858
1,30,1,1,0,1,PERTURBATION,0,ROTATION,0.348577976,45,30.08725638,-14.91274362,70,183,msl000394,v2,0.493874073,2.181848288,107.3091858,16.97119751,5858
1,30,1,1,0,1,PERTURBATION,0,ROTATION,0.351851225,0,-15.48442317,-15.48442317,70,184,msl000394,v2,0.40914464,2.041161776,65.64542847,14.9694519,5858
1,30,1,1,0,1,PERTURBATION,0,ROTATION,0.468820095,45,-2.588874213,-47.58887421,70,185,msl000394,v2,0.093198538,1.941175461,106.308313,9.965087891,5858
1,30,1,1,0,1,PERTURBATION,0,ROTATION,0.390573025,135,76.06665724,-58.93334276,70,186,msl000394,v2,0.056574821,1.688585758,-164.3589355,19.97381592,5858
1,30,1,1,0,1,PERTURBATION,0,ROTATION,0.414105892,-135,-162.3912895,-27.39128955,70,187,msl000394,v2,0.187229395,1.299220324,-68.35369873,50,5908
1,30,1,1,0,1,PERTURBATION,0,ROTATION,0.316792011,-45,-81.89733382,-36.89733382,70,188,msl000394,v2,0.215199947,1.775160789,22.81398621,18.30569458,5990
1,30,1,1,0,1,PERTURBATION,0,ROTATION,0.298602104,-90,-141.4810787,-51.48107873,70,189,msl000394,v2,0.842611313,2.426572323,-25.02182007,20.97468872,5990
1,30,1,1,0,1,PERTURBATION,0,ROTATION,0.363492012,0,-36.77829094,-36.77829094,70,190,msl000394,v2,0.117552519,1.81360364,63.14324646,17.30482178,5990
1,30,1,1,0,1,PERTURBATION,0,ROTATION,0.318938971,180,138.3526092,-41.64739075,70,191,msl000394,v2,0.089788914,1.71378684,-116.189505,17.63844604,5990
1,30,1,1,0,1,PERTURBATION,0,ROTATION,0.33050704,90,46.73566285,-43.26433715,70,192,msl000394,v2,0.004005671,1.84401679,-208.0244385,11.63320923,5990
1,30,1,1,0,1,PERTURBATION,0,ROTATION,0.392431021,-45,-65.76209495,-20.76209495,70,193,msl000394,v2,0.232110262,1.848070145,19.14411926,17.30482178,6073
1,30,1,1,0,1,PERTURBATION,0,ROTATION,0.344820023,135,98.11155893,-36.88844107,70,194,msl000394,v2,0.29199028,2.084004164,-162.1903778,14.30220337,6073
1,30,1,1,0,1,PERTURBATION,0,ROTATION,0.231318951,0,-31.79371433,-31.79371433,70,195,msl000394,v2,0.395466089,2.235458136,62.14237366,10.63233643,6163
1,30,1,1,0,1,PERTURBATION,0,ROTATION,0.338419914,-135,177.4619047,-47.5380953,70,196,msl000394,v2,0.520521641,2.256580591,-69.52138367,14.63582764,6163
1,30,1,1,0,1,PERTURBATION,0,ROTATION,0.228986979,-90,-145.9814021,-55.98140211,70,197,msl000394,v2,0.221568584,1.829571486,-23.35369873,16.63757324,6163
1,30,1,1,0,1,PERTURBATION,0,ROTATION,0.326472044,45,4.267977231,-40.73202277,70,198,msl000394,v2,0.515285492,2.299291611,106.9755615,15.30307617,6248
1,30,1,1,0,1,PERTURBATION,0,ROTATION,0.214480877,90,38.63228373,-51.36771627,70,199,msl000394,v2,0.38244319,2.278459072,-207.5240021,8.296966553,6248
1,30,1,1,0,1,PERTURBATION,0,ROTATION,0.191522837,180,130.4466401,-49.55335993,70,200,msl000394,v2,1.086380959,2.86237812,-117.6908142,14.30220337,6248
1,30,1,1,0,1,PERTURBATION,0,ROTATION,0.487443209,0,-33.85962506,-33.85962506,70,201,msl000394,v2,0.269684315,2.1577003,60.14062805,11.29958496,6248
1,30,1,1,0,1,PERTURBATION,0,ROTATION,0.198764801,90,32.33686561,-57.66313439,70,202,msl000394,v2,0.433846712,2.177876711,-206.5231293,11.9668335,6248
1,30,1,1,0,1,PERTURBATION,0,ROTATION,0.227519989,-45,-83.94131861,-38.94131861,70,203,msl000394,v2,0.604002714,2.236046791,16.30831299,19.30656738,6248
1,30,1,1,0,1,PERTURBATION,0,ROTATION,0.274482965,180,122.0347652,-57.96523485,70,204,msl000394,v2,0.365457058,2.421462059,-119.1921234,5.627972412,6248
1,30,1,1,0,1,PERTURBATION,0,ROTATION,0.389410973,45,-4.975682917,-49.97568292,70,205,msl000394,v2,0.227420568,2.275474548,98.13451843,12.63408203,6248
1,30,1,1,0,1,PERTURBATION,0,ROTATION,0.464178085,-135,-154.0091972,-19.00919717,70,206,msl000394,v2,0.137707472,1.753725529,-71.189505,17.97207031,6331
1,30,1,1,0,1,PERTURBATION,0,ROTATION,0.37795496,135,84.41996461,-50.58003539,70,207,msl000394,v2,0.80791235,2.59191823,-163.691687,12.63408203,6331
1,30,1,1,0,1,PERTURBATION,0,ROTATION,0.490315914,-90,-139.4102797,-49.41027971,70,208,msl000394,v2,2.176519632,3.808530807,-25.52225647,17.63844604,6331
1,30,1,1,0,1,PERTURBATION,1,ROTATION,0.430990934,-90,-137.6475668,-47.64756676,70,209,msl000394,v2,0.321442366,1.825439215,-22.85326233,18.63931885,6331
1,30,1,1,0,1,PERTURBATION,0,ROTATION,0.389726877,180,141.9472619,-38.05273807,70,210,msl000394,v2,0.412444115,1.948456287,-115.1886322,19.64019165,6412
1,30,1,1,0,1,PERTURBATION,0,ROTATION,0.444081068,90,45.66692192,-44.33307808,70,211,msl000394,v2,2.465100527,4.185052633,-205.1886322,20.97468872,6412
1,30,1,1,0,1,PERTURBATION,0,ROTATION,0.277067184,0,-31.22428957,-31.22428957,70,212,msl000394,v2,0.256153822,1.792201996,69.31529541,15.30307617,6497
1,30,1,1,0,1,PERTURBATION,0,ROTATION,0.407778978,-45,-74.42923745,-29.42923745,70,213,msl000394,v2,0.379947424,1.83596158,23.48123474,18.97294312,6579
1,30,1,1,0,1,PERTURBATION,0,ROTATION,0.329412937,135,100.8007523,-34.19924771,70,214,msl000394,v2,0.535458088,2.279418945,-157.6864502,10.96596069,6579
1,30,1,1,0,1,PERTURBATION,0,ROTATION,0.218368053,45,6.208984203,-38.7910158,70,215,msl000394,v2,0.346208334,2.106229305,109.1441193,11.63320923,6579
1,30,1,1,0,1,PERTURBATION,0,ROTATION,0.430139065,-135,-166.5546197,-31.55461971,70,216,msl000394,v2,0.181049347,1.837049484,-71.52312927,16.97119751,6579
1,30,1,1,0,1,PERTURBATION,0,ROTATION,0.282510042,-45,-107.0011996,-62.00119959,70,217,msl000394,v2,0.303633451,2.007682562,22.48036194,10.63233643,6579
1,30,1,1,0,1,PERTURBATION,0,ROTATION,0.194307804,-90,-142.1472465,-52.14724652,70,218,msl000394,v2,0.359461784,2.255469799,-30.69343262,14.30220337,6579
1,30,1,1,0,1,PERTURBATION,0,ROTATION,0.573266983,180,133.8318611,-46.16813886,70,219,msl000394,v2,0.434025049,2.202094078,-118.8584991,17.97207031,6579
1,30,1,1,0,1,PERTURBATION,0,ROTATION,0.348466158,45,12.52558981,-32.47441019,70,220,msl000394,v2,0.268299818,2.220273018,100.9703247,10.96596069,6579
1,30,1,1,0,1,PERTURBATION,0,ROTATION,0.318843126,135,99.39628146,-35.60371854,70,221,msl000394,v2,0.629079819,2.309043884,-161.3563171,14.63582764,6579
1,30,1,1,0,1,PERTURBATION,0,ROTATION,0.103796005,90,62.33258382,-27.66741618,70,222,msl000394,v2,0.322660923,1.930637121,-203.8541351,15.63670044,6664
1,30,1,1,0,1,PERTURBATION,0,ROTATION,0.318626881,-135,169.5802228,-55.41977718,70,223,msl000394,v2,0.158410072,1.638445139,-67.35282593,19.97381592,6664
1,30,1,1,0,1,PERTURBATION,0,ROTATION,0.380753994,0,-36.86117737,-36.86117737,70,224,msl000394,v2,0.375703335,1.887731314,69.14848328,16.30394897,6748
1,30,1,1,0,1,PERTURBATION,1,ROTATION,0.310552835,-90,-155.0667309,-65.06673091,70,225,msl000394,v2,0.460882664,2.060926676,-26.02269287,18.30569458,6748
1,30,1,1,0,1,PERTURBATION,0,ROTATION,0.34132719,-45,-86.55106073,-41.55106073,70,226,msl000394,v2,0.301946878,1.973911047,18.64368286,14.9694519,6834
1,30,1,1,0,1,PERTURBATION,0,ROTATION,0.42747879,90,52.8931983,-37.1068017,70,227,msl000394,v2,0.28867507,2.11262989,-206.5231293,21.97556152,6913
1,30,1,1,0,1,PERTURBATION,1,ROTATION,0.485507011,45,-0.48614026,-45.48614026,70,228,msl000394,v2,0.121654034,1.865700006,104.8070038,17.63844604,6913
1,30,1,1,0,1,PERTURBATION,0,ROTATION,0.564973116,0,-36.35751554,-36.35751554,70,229,msl000394,v2,0.419376612,2.355356693,64.3109314,14.9694519,6913
1,30,1,1,0,1,PERTURBATION,0,ROTATION,0.426635027,135,77.18214337,-57.81785663,70,230,msl000394,v2,0.408089399,1.992103338,-163.5248749,21.30831299,6913
1,30,1,1,0,1,PERTURBATION,0,ROTATION,0.289644957,-135,-179.4022362,-44.40223621,70,231,msl000394,v2,0.389360189,1.92535305,-69.02094727,20.30744019,6913
1,30,1,1,0,1,PERTURBATION,0,ROTATION,0.30587697,180,135.3031638,-44.69683617,70,232,msl000394,v2,0.303333759,2.215331793,-116.3563171,16.30394897,6913
1,30,1,1,0,1,PERTURBATION,0,ROTATION,0.468438864,-90,-145.6558169,-55.65581687,70,233,msl000394,v2,0.202409983,1.13040185,-23.02007446,41.32576904,6913
1,30,1,1,0,1,PERTURBATION,0,ROTATION,0.253408909,90,29.4257994,-60.5742006,70,234,msl000394,v2,0.343235016,2.031200171,-211.6943054,20.64106445,6913
1,30,1,1,0,1,PERTURBATION,0,ROTATION,0.377907038,180,146.310206,-33.68979395,70,235,msl000394,v2,0.621841192,2.389855146,-117.1903778,16.30394897,6913
1,30,1,1,0,1,PERTURBATION,0,ROTATION,0.444896936,-135,-174.5738751,-39.57387507,70,236,msl000394,v2,0.184489489,1.944461584,-76.86111755,19.97381592,6913
1,30,1,1,0,1,PERTURBATION,0,ROTATION,0.433417797,135,102.9366277,-32.06337225,70,237,msl000394,v2,1.041415453,3.793467283,-153.5161469,20.30744019,6993
1,30,1,1,0,1,PERTURBATION,1,ROTATION,0.46280098,45,6.748102336,-38.25189766,70,238,msl000394,v2,0.324059963,2.13207078,93.96421509,30.31616821,6993
1,30,1,1,0,1,PERTURBATION,0,ROTATION,0.579331875,0,-34.00675107,-34.00675107,70,239,msl000394,v2,0.824980497,2.44098568,65.47861633,21.64193726,7072
1,30,1,1,0,1,PERTURBATION,0,ROTATION,0.400788069,-45,-80.27288641,-35.27288641,70,240,msl000394,v2,0.744390249,2.192403316,22.81398621,20.64106445,7072
1,30,1,1,0,1,PERTURBATION,0,ROTATION,0.418110132,-45,-87.7890816,-42.7890816,70,241,msl000394,v2,0.600919008,2.048879862,21.8131134,20.97468872,7072
1,30,1,1,0,1,PERTURBATION,0,ROTATION,0.336080074,135,90.23769044,-44.76230956,70,242,msl000394,v2,0.502711296,2.038714409,-156.6855774,15.63670044,7072
1,30,1,1,0,1,PERTURBATION,0,ROTATION,0.519570112,-135,178.6884063,-46.31159367,70,243,msl000394,v2,0.190505981,1.806480885,-64.85064392,13.63495483,7072
1,30,1,1,0,1,PERTURBATION,0,ROTATION,0.351795912,90,53.4868052,-36.5131948,70,244,msl000394,v2,0.591014862,2.159013033,-202.0192017,13.9685791,7072
1,30,1,1,0,1,PERTURBATION,0,ROTATION,0.34642601,-90,-142.2917698,-52.29176978,70,245,msl000394,v2,0.067256212,1.683281183,-19.68383179,11.29958496,7072
1,30,1,1,0,1,PERTURBATION,0,ROTATION,0.368413925,0,-20.94204405,-20.94204405,70,246,msl000394,v2,0.219869137,1.819858074,69.14848328,12.63408203,7072
1,30,1,1,0,1,PERTURBATION,0,ROTATION,0.351653814,45,-4.424052904,-49.4240529,70,247,msl000394,v2,0.255962372,1.847998381,114.8157318,11.63320923,7072
1,30,1,1,0,1,PERTURBATION,0,ROTATION,0.307354927,180,139.2077927,-40.79220728,70,248,msl000394,v2,0.268277407,1.980327368,-113.5205109,11.9668335,7072
1,30,1,1,0,1,PERTURBATION,1,ROTATION,0.470371008,-90,-130.8339058,-40.83390578,70,249,msl000394,v2,0.126256704,1.846246719,-21.35195313,9.631463623,7072
1,30,1,1,0,1,PERTURBATION,0,ROTATION,0.461042881,-45,-91.05678946,-46.05678946,70,250,msl000394,v2,0.19430232,1.650335312,25.98341675,19.30656738,7072
1,30,1,1,0,1,PERTURBATION,0,ROTATION,0.386708975,90,39.83061915,-50.16938085,70,251,msl000394,v2,0.256901264,2.056947231,-205.1886322,10.29871216,7072
1,30,1,1,0,1,PERTURBATION,0,ROTATION,0.558664083,45,-1.992096956,-46.99209696,70,252,msl000394,v2,0.32028389,2.072326899,104.9738159,17.97207031,7072
1,30,1,1,0,1,PERTURBATION,0,ROTATION,0.353414059,180,128.936973,-51.063027,70,253,msl000394,v2,0.4234972,2.159487247,-119.3589355,16.97119751,7072
1,30,1,1,0,1,PERTURBATION,0,ROTATION,0.352383137,-135,-177.5095393,-42.50953926,70,254,msl000394,v2,0.112592697,1.888566732,-71.85675354,10.96596069,7072
1,30,1,1,0,1,PERTURBATION,0,ROTATION,0.398507833,0,-36.87680357,-36.87680357,70,255,msl000394,v2,0.035164356,1.827127218,65.3118042,11.63320923,7161
1,30,1,1,0,1,PERTURBATION,0,ROTATION,0.373475075,135,91.81106366,-43.18893634,70,256,msl000394,v2,0.508581161,2.260620117,-160.1886322,15.63670044,7161
1,30,1,1,0,1,PERTURBATION,0,ROTATION,0.234042883,-45,-99.76498999,-54.76498999,70,257,msl000394,v2,0.14678812,1.834788084,22.3135498,10.63233643,7161
1,30,1,1,0,1,PERTURBATION,0,ROTATION,0.233625889,45,-3.020015373,-48.02001537,70,258,msl000394,v2,0.320168018,2.120182991,110.9790527,7.629718018,7161
1,30,1,1,0,1,PERTURBATION,0,ROTATION,0.392049074,-135,173.4209489,-51.57905115,70,259,msl000394,v2,0.335422516,2.951472521,-76.69430542,28.31442261,7161
1,30,1,1,0,1,PERTURBATION,0,ROTATION,0.40861702,135,106.2153361,-28.78466391,70,260,msl000394,v2,0.381826878,1.893834829,-149.6794678,10.29871216,7251
1,30,1,1,0,1,PERTURBATION,0,ROTATION,0.397080898,0,-24.20900198,-24.20900198,70,261,msl000394,v2,0.175447941,1.895455122,72.81835022,5.627972412,7251
1,30,1,1,0,1,PERTURBATION,0,ROTATION,0.278450966,-90,-139.4601901,-49.46019007,70,262,msl000394,v2,0.432276964,2.080295086,-16.84802551,7.629718018,7251
1,30,1,1,0,1,PERTURBATION,0,ROTATION,0.29451704,180,147.006283,-32.99371703,70,263,msl000394,v2,0.19256115,1.792567968,-108.5161469,10.29871216,7251
1,30,1,1,0,1,PERTURBATION,0,ROTATION,0.415449142,90,56.90640429,-33.09359571,70,264,msl000394,v2,0.01865077,1.498624802,-198.1825226,15.30307617,7251
1,30,1,1,0,1,PERTURBATION,0,ROTATION,0.371857882,90,49.11604185,-40.88395815,70,265,msl000394,v2,0.619864702,2.227823734,-204.8550079,17.63844604,7251
1,30,1,1,0,1,PERTURBATION,0,ROTATION,0.496694088,-45,-71.50866412,-26.50866412,70,266,msl000394,v2,0.988349676,2.492460728,25.31616821,14.9694519,7337
1,30,1,1,0,1,PERTURBATION,0,ROTATION,0.195485115,0,-30.90565644,-30.90565644,70,267,msl000394,v2,0.452485561,2.004452705,69.64891968,12.9677063,7425
1,30,1,1,0,1,PERTURBATION,0,ROTATION,0.53525281,135,100.3238924,-34.67610757,70,268,msl000394,v2,0.217037201,2.025051117,-155.6847046,4.293475342,7425
1,30,1,1,0,1,PERTURBATION,0,ROTATION,0.34357214,-135,-174.366609,-39.36660898,70,269,msl000394,v2,0.201482773,1.585477829,-61.51440125,19.30656738,7506
1,30,1,1,0,1,PERTURBATION,0,ROTATION,0.23746109,180,130.2814684,-49.71853162,70,270,msl000394,v2,0.477930069,2.293992043,-117.0235657,11.63320923,7506
1,30,1,1,0,1,PERTURBATION,0,ROTATION,0.383839846,-90,-143.3900922,-53.39009217,70,271,msl000394,v2,0.341192007,1.893188,-20.68470459,16.63757324,7506
1,30,1,1,0,1,PERTURBATION,0,ROTATION,0.359520912,45,-2.993500807,-47.99350081,70,272,msl000394,v2,0.229509354,2.205471277,106.8087494,13.9685791,7506
1,30,1,1,0,1,PERTURBATION,0,ROTATION,0.396394014,0,-23.52347698,-23.52347698,70,273,msl000394,v2,0.00158143,2.017550468,57.63844604,10.29871216,7506
1,30,1,1,0,1,PERTURBATION,0,ROTATION,0.441586971,-45,-99.01978652,-54.01978652,70,274,msl000394,v2,0.438519716,2.126475811,21.97992554,13.9685791,7506
1,30,1,1,0,1,PERTURBATION,0,ROTATION,0.230111122,135,91.81752048,-43.18247952,70,275,msl000394,v2,1.564622641,3.412619591,-162.0235657,13.63495483,7506
1,30,1,1,0,1,PERTURBATION,0,ROTATION,0.420336962,90,56.693187,-33.306813,70,276,msl000394,v2,0.267308235,1.667314291,-199.1833954,19.30656738,7587
1,30,1,1,0,1,PERTURBATION,0,ROTATION,0.236903906,-90,-134.8173369,-44.81733693,70,277,msl000394,v2,0.429194689,2.037231684,-19.68383179,11.63320923,7587
1,30,1,1,0,1,PERTURBATION,0,ROTATION,0.296128988,180,151.6575053,-28.34249469,70,278,msl000394,v2,0.33849144,1.922501326,-111.8523895,14.30220337,7673
1,30,1,1,0,1,PERTURBATION,0,ROTATION,0.35831809,45,2.32619798,-42.67380202,70,279,msl000394,v2,0.279964447,2.879971266,108.4768707,5.627972412,7673
1,30,1,1,0,1,PERTURBATION,0,ROTATION,0.301424026,-135,-176.5224499,-41.5224499,70,280,msl000394,v2,0.174034357,1.774000168,-71.02269287,17.30482178,7673
1,30,1,1,0,1,PERTURBATION,0,ROTATION,0.088952065,90,38.12030099,-51.87969901,70,281,msl000394,v2,0.21992588,1.811939955,-203.0200745,15.63670044,7673
1,30,1,1,0,1,PERTURBATION,0,ROTATION,0.27271986,-45,-82.36928027,-37.36928027,70,282,msl000394,v2,0.198556185,1.734557152,22.81398621,19.30656738,7754
1,30,1,1,0,1,PERTURBATION,1,ROTATION,0.37908411,-135,177.8495856,-47.15041444,70,283,msl000394,v2,0.416077137,2.080145121,-66.68557739,12.63408203,7754
1,30,1,1,0,1,PERTURBATION,0,ROTATION,0.405941963,180,147.6474187,-32.3525813,70,284,msl000394,v2,0.364666462,2.148675442,-118.691687,14.63582764,7754
1,30,1,1,0,1,PERTURBATION,0,ROTATION,0.327611923,45,-4.104470333,-49.10447033,70,285,msl000394,v2,0.790298462,3.302346468,106.1415009,17.30482178,7754
1,30,1,1,0,1,PERTURBATION,0,ROTATION,0.238216877,0,-13.80701697,-13.80701697,70,286,msl000394,v2,0.136283875,1.912238836,66.97992554,9.631463623,7754
1,30,1,1,0,1,PERTURBATION,0,ROTATION,0.237251043,135,79.6720787,-55.3279213,70,287,msl000394,v2,0.215408802,2.063405752,-164.3589355,13.30133057,7754
1,30,1,1,0,1,PERTURBATION,0,ROTATION,0.563251972,-90,-134.8380308,-44.83803079,70,288,msl000394,v2,0.268094301,2.076140404,-25.85588074,15.63670044,7839
1,30,1,1,0,1,PERTURBATION,0,ROTATION,0.34869194,-45,-85.12553261,-40.12553261,70,289,msl000394,v2,0.333588123,1.957706213,22.14673767,15.97032471,7839
1,30,1,1,0,1,PERTURBATION,0,ROTATION,0.469073057,135,92.01232141,-42.98767859,70,290,msl000394,v2,0.445772409,1.733780384,-153.8497711,22.97643433,7917
1,30,1,1,0,1,PERTURBATION,0,ROTATION,0.236251831,-90,-147.2633977,-57.26339772,70,291,msl000394,v2,0.259101629,1.859072685,-23.687323,15.30307617,7917
1,30,1,1,0,1,PERTURBATION,0,ROTATION,0.267621994,180,151.4147392,-28.5852608,70,292,msl000394,v2,0.075202703,1.755182743,-112.5196381,11.9668335,7917
1,30,1,1,0,1,PERTURBATION,0,ROTATION,0.367465019,45,5.92151718,-39.07848282,70,293,msl000394,v2,0.312272787,2.056285858,110.3118042,13.63495483,7917
1,30,1,1,0,1,PERTURBATION,0,ROTATION,0.247735023,90,19.02616546,-70.97383454,70,294,msl000394,v2,0.107511759,2.027531862,-205.3554443,7.963342285,7917
1,30,1,1,0,1,PERTURBATION,1,ROTATION,0.525151014,0,-40.941817,-40.941817,70,295,msl000394,v2,0.713675261,2.48968029,64.47774353,11.9668335,7917
1,30,1,1,0,1,PERTURBATION,0,ROTATION,0.471703053,-135,-164.3436754,-29.3436754,70,296,msl000394,v2,0.30022645,2.068201303,-72.85762634,13.63495483,7917
1,30,1,1,0,1,PERTURBATION,0,ROTATION,0.424071789,180,155.1575135,-24.84248648,70,297,msl000394,v2,0.411858559,2.467923641,-111.8523895,20.64106445,7997
1,30,1,1,0,1,PERTURBATION,0,ROTATION,0.381078959,0,-20.1811297,-20.1811297,70,298,msl000394,v2,0.315919161,2.219923258,65.8122406,5.96159668,7997
1,30,1,1,0,1,PERTURBATION,0,ROTATION,0.361413956,-45,-95.47858221,-50.47858221,70,299,msl000394,v2,0.3210783,2.121127129,17.14237366,14.30220337,7997
1,30,1,1,0,1,PERTURBATION,0,ROTATION,0.18866086,-90,-140.2509164,-50.25091643,70,300,msl000394,v2,0.284014225,2.09201932,-26.02269287,10.96596069,8087
1,30,1,1,0,1,PERTURBATION,0,ROTATION,0.393527031,135,110.1461828,-24.85381722,70,301,msl000394,v2,0.087071657,1.82316947,-157.0192017,8.63059082,8087
1,30,1,1,0,1,PERTURBATION,0,ROTATION,0.325550079,45,1.034649978,-43.96535002,70,302,msl000394,v2,0.308333158,2.19633913,109.6445557,5.96159668,8087
1,30,1,1,0,1,PERTURBATION,0,ROTATION,0.51060009,90,40.56573657,-49.43426343,70,303,msl000394,v2,0.067234993,1.65922904,-205.5222565,19.97381592,8087
1,30,1,1,0,1,PERTURBATION,0,ROTATION,0.161911011,-135,-166.8332614,-31.83326139,70,304,msl000394,v2,0.319381952,2.21536684,-70.52225647,6.962469482,8087
1,30,1,1,0,1,PERTURBATION,0,ROTATION,0.460098982,-45,-60.27650657,-15.27650657,70,305,msl000394,v2,0.266535759,2.042575836,23.14761047,8.63059082,8087
1,30,1,1,0,1,PERTURBATION,0,ROTATION,0.45935607,-135,-172.5222948,-37.52229483,70,306,msl000394,v2,0.31569767,1.891711473,-70.6890686,20.30744019,8167
1,30,1,1,0,1,PERTURBATION,0,ROTATION,0.309465885,0,-25.2338444,-25.2338444,70,307,msl000394,v2,0.192117214,1.824087381,70.64979248,10.29871216,8257
1,30,1,1,0,1,PERTURBATION,0,ROTATION,0.251274109,-90,-146.3740263,-56.37402632,70,308,msl000394,v2,0.126229048,1.838269949,-24.1877594,11.9668335,8257
1,30,1,1,0,1,PERTURBATION,0,ROTATION,0.249579906,45,34.07036172,-10.92963828,70,309,msl000394,v2,0.902989864,15.15107369,108.4768707,50,8307
1,30,1,1,0,1,PERTURBATION,0,ROTATION,0.181334019,135,101.4043719,-33.59562812,70,310,msl000394,v2,0.138502836,1.546539783,-156.8523895,21.30831299,8386
1,30,1,1,0,1,PERTURBATION,0,ROTATION,0.475332975,180,149.2696767,-30.73032332,70,311,msl000394,v2,0.439878702,1.95985055,-109.1833954,15.63670044,8386
1,30,1,1,0,1,PERTURBATION,0,ROTATION,0.567393064,90,33.53278873,-56.46721127,70,312,msl000394,v2,0.919161797,3.207206726,-204.5213837,18.63931885,8386
0,0,0,0,0,0,WASHOUT,0,NONE,0.750146866,135,121.7620428,-13.23795722,70,313,msl000394,v2,0,0,0,0,8386
0,0,0,0,0,0,WASHOUT,0,NONE,0.435565948,0,-8.181988463,-8.181988463,70,314,msl000394,v2,0,0,0,0,8386
0,0,0,0,0,0,WASHOUT,0,NONE,0.428359985,-135,-153.5591176,-18.55911759,70,315,msl000394,v2,0,0,0,0,8386
0,0,0,0,0,0,WASHOUT,0,NONE,0.438737869,-90,-100.0386511,-10.03865107,70,316,msl000394,v2,0,0,0,0,8386
0,0,0,0,0,0,WASHOUT,0,NONE,0.310674906,180,141.7775968,-38.22240322,70,317,msl000394,v2,0,0,0,0,8386
0,0,0,0,0,0,WASHOUT,0,NONE,0.416956902,90,72.12257356,-17.87742644,70,318,msl000394,v2,0,0,0,0,8386
0,0,0,0,0,0,WASHOUT,0,NONE,0.327670813,-45,-59.95627856,-14.95627856,70,319,msl000394,v2,0,0,0,0,8386
0,0,0,0,0,0,WASHOUT,0,NONE,0.172551155,45,27.09014034,-17.90985966,70,320,msl000394,v2,0,0,0,0,8386
0,0,0,0,0,0,WASHOUT,0,NONE,0.158679962,-90,-100.2987386,-10.2987386,70,321,msl000394,v2,0,0,0,0,8386
0,0,0,0,0,0,WASHOUT,0,NONE,0.141003847,45,38.90239922,-6.09760078,70,322,msl000394,v2,0,0,0,0,8386
0,0,0,0,0,0,WASHOUT,0,NONE,0.253568888,135,138.9857449,3.985744939,70,323,msl000394,v2,0,0,0,0,8386
0,0,0,0,0,0,WASHOUT,0,NONE,0.124592066,90,68.91477404,-21.08522596,70,324,msl000394,v2,0,0,0,0,8386
0,0,0,0,0,0,WASHOUT,0,NONE,0.201755047,180,178.1932334,-1.806766645,70,325,msl000394,v2,0,0,0,0,8386
0,0,0,0,0,0,WASHOUT,0,NONE,0.219467878,-135,-142.6504298,-7.650429814,70,326,msl000394,v2,0,0,0,0,8386
0,0,0,0,0,0,WASHOUT,0,NONE,0.141309977,-45,-55.98109692,-10.98109692,70,327,msl000394,v2,0,0,0,0,8386
0,0,0,0,0,0,WASHOUT,0,NONE,0.188029051,0,-12.95350675,-12.95350675,70,328,msl000394,v2,0,0,0,0,8386
0,0,0,0,0,0,WASHOUT,0,NONE,0.364495993,180,171.4026897,-8.597310326,70,329,msl000394,v2,0,0,0,0,8386
0,0,0,0,0,0,WASHOUT,0,NONE,0.22951293,-135,-146.7069559,-11.70695588,70,330,msl000394,v2,0,0,0,0,8386
0,0,0,0,0,0,WASHOUT,0,NONE,0.387900114,-90,-94.62476659,-4.624766589,70,331,msl000394,v2,0,0,0,0,8386
0,0,0,0,0,0,WASHOUT,0,NONE,0.243733168,-45,-46.61629479,-1.616294794,70,332,msl000394,v2,0,0,0,0,8386
0,0,0,0,0,0,WASHOUT,0,NONE,0.342334032,45,38.24003482,-6.759965178,70,333,msl000394,v2,0,0,0,0,8386
0,0,0,0,0,0,WASHOUT,0,NONE,0.297027111,0,-7.077103316,-7.077103316,70,334,msl000394,v2,0,0,0,0,8386
0,0,0,0,0,0,WASHOUT,0,NONE,0.33884716,90,76.37713261,-13.62286739,70,335,msl000394,v2,0,0,0,0,8386
0,0,0,0,0,0,WASHOUT,0,NONE,0.256937027,135,125.7590054,-9.240994563,70,336,msl000394,v2,0,0,0,0,8386
0,0,0,0,0,0,WASHOUT,0,NONE,0.447268009,-45,-61.50596435,-16.50596435,70,337,msl000394,v2,0,0,0,0,8386
0,0,0,0,0,0,WASHOUT,0,NONE,0.254617214,-135,-151.2242656,-16.22426564,70,338,msl000394,v2,0,0,0,0,8386
0,0,0,0,0,0,WASHOUT,0,NONE,0.329198837,90,86.00163504,-3.998364957,70,339,msl000394,v2,0,0,0,0,8386
0,0,0,0,0,0,WASHOUT,0,NONE,0.590847015,135,134.8871604,-0.112839649,70,340,msl000394,v2,0,0,0,0,8386
0,0,0,0,0,0,WASHOUT,0,NONE,0.346125126,180,177.0421224,-2.957877575,70,341,msl000394,v2,0,0,0,0,8386
0,0,0,0,0,0,WASHOUT,0,NONE,0.436917782,0,-13.05509554,-13.05509554,70,342,msl000394,v2,0,0,0,0,8386
0,0,0,0,0,0,WASHOUT,0,NONE,0.243252993,-90,-93.56226276,-3.562262756,70,343,msl000394,v2,0,0,0,0,8386
0,0,0,0,0,0,WASHOUT,0,NONE,0.392690897,45,28.8394638,-16.1605362,70,344,msl000394,v2,0,0,0,0,8386
0,0,0,0,0,0,WASHOUT,0,NONE,0.31718111,180,-175.7357002,4.264299778,70,345,msl000394,v2,0,0,0,0,8386
0,0,0,0,0,0,WASHOUT,0,NONE,0.349836111,45,42.24355158,-2.756448417,70,346,msl000394,v2,0,0,0,0,8386
0,0,0,0,0,0,WASHOUT,0,NONE,0.338598013,-135,-155.2211669,-20.22116695,70,347,msl000394,v2,0,0,0,0,8386
0,0,0,0,0,0,WASHOUT,0,NONE,0.29478097,135,116.0991166,-18.90088336,70,348,msl000394,v2,0,0,0,0,8386
0,0,0,0,0,0,WASHOUT,0,NONE,0.357022047,-90,-106.4751704,-16.47517039,70,349,msl000394,v2,0,0,0,0,8386
0,0,0,0,0,0,WASHOUT,0,NONE,0.446876049,90,81.07523317,-8.92476683,70,350,msl000394,v2,0,0,0,0,8386
0,0,0,0,0,0,WASHOUT,0,NONE,0.596345186,-45,-46.84745987,-1.847459874,70,351,msl000394,v2,0,0,0,0,8386
0,0,0,0,0,0,WASHOUT,0,NONE,0.368152142,0,-4.876986279,-4.876986279,70,352,msl000394,v2,0,0,0,0,8386
0,0,0,0,0,0,WASHOUT,0,NONE,0.352528095,-135,-139.4118085,-4.41180845,70,353,msl000394,v2,0,0,0,0,8386
0,0,0,0,0,0,WASHOUT,0,NONE,0.362830162,90,76.47378945,-13.52621055,70,354,msl000394,v2,0,0,0,0,8386
0,0,0,0,0,0,WASHOUT,0,NONE,0.638162136,180,-176.3595836,3.640416438,70,355,msl000394,v2,0,0,0,0,8386
0,0,0,0,0,0,WASHOUT,0,NONE,0.337399006,-90,-108.4391502,-18.4391502,70,356,msl000394,v2,0,0,0,0,8386
0,0,0,0,0,0,WASHOUT,0,NONE,0.288259029,-45,-48.07792313,-3.077923134,70,357,msl000394,v2,0,0,0,0,8386
0,0,0,0,0,0,WASHOUT,0,NONE,0.323083878,135,125.0165884,-9.983411584,70,358,msl000394,v2,0,0,0,0,8386
0,0,0,0,0,0,WASHOUT,0,NONE,0.482717037,45,31.28434654,-13.71565346,70,359,msl000394,v2,0,0,0,0,8386
0,0,0,0,0,0,WASHOUT,0,NONE,0.829852104,0,0.990604409,0.990604409,70,360,msl000394,v2,0,0,0,0,8386
0,0,1,1,0,0,BASELINE,0,NONE,0.477754831,-90,-90.06566522,-0.06566522,70,1,msl000399,v2,0,0,0,0,0
0,0,1,1,0,0,BASELINE,0,NONE,0.40553093,45,49.60926411,4.609264114,70,2,msl000399,v2,0,0,0,0,0
0,0,1,1,0,0,BASELINE,0,NONE,0.393471003,180,-176.4076102,3.592389754,70,3,msl000399,v2,0,0,0,0,0
0,0,1,1,0,0,BASELINE,0,NONE,0.381733179,-45,-47.87845382,-2.878453816,70,4,msl000399,v2,0,0,0,0,0
0,0,1,1,0,0,BASELINE,0,NONE,0.398518085,0,-4.94160125,-4.94160125,70,5,msl000399,v2,0,0,0,0,0
0,0,1,1,0,0,BASELINE,0,NONE,0.385034084,-135,-143.4531366,-8.453136616,70,6,msl000399,v2,0,0,0,0,0
0,0,1,1,0,0,BASELINE,0,NONE,0.082520008,135,140.7262157,5.72621572,70,7,msl000399,v2,0,0,0,0,0
0,0,1,1,0,0,BASELINE,0,NONE,0.486084938,90,82.18687906,-7.813120939,70,8,msl000399,v2,0,0,0,0,0
0,0,1,1,0,0,BASELINE,0,NONE,0.491122007,45,33.56409119,-11.43590881,70,9,msl000399,v2,0,0,0,0,0
0,0,1,1,0,0,BASELINE,0,NONE,0.542570829,90,96.69921732,6.699217317,70,10,msl000399,v2,0,0,0,0,0
0,0,1,1,0,0,BASELINE,0,NONE,0.369024038,135,143.2913188,8.291318827,70,11,msl000399,v2,0,0,0,0,0
0,0,1,1,0,0,BASELINE,0,NONE,0.465636969,-135,-151.0408441,-16.04084412,70,12,msl000399,v2,0,0,0,0,0
0,0,1,1,0,0,BASELINE,0,NONE,0.450028896,-45,-44.33194334,0.668056663,70,13,msl000399,v2,0,0,0,0,0
0,0,1,1,0,0,BASELINE,0,NONE,0.103652954,0,-9.530258385,-9.530258385,70,14,msl000399,v2,0,0,0,0,0
0,0,1,1,0,0,BASELINE,0,NONE,0.408227921,-90,-96.00962289,-6.009622893,70,15,msl000399,v2,0,0,0,0,0
0,0,1,1,0,0,BASELINE,0,NONE,0.419898033,180,172.1320094,-7.86799063,70,16,msl000399,v2,0,0,0,0,0
0,0,1,1,0,0,BASELINE,0,NONE,0.453750849,90,91.50179091,1.501790908,70,17,msl000399,v2,0,0,0,0,0
0,0,1,1,0,0,BASELINE,0,NONE,0.360363007,45,40.10425537,-4.895744631,70,18,msl000399,v2,0,0,0,0,0
0,0,1,1,0,0,BASELINE,0,NONE,0.357007027,-90,-92.57796503,-2.577965034,70,19,msl000399,v2,0,0,0,0,0
0,0,1,1,0,0,BASELINE,0,NONE,0.403452158,-135,-147.9318738,-12.93187378,70,20,msl000399,v2,0,0,0,0,0
0,0,1,1,0,0,BASELINE,0,NONE,0.367463112,180,-171.5498211,8.450178901,70,21,msl000399,v2,0,0,0,0,0
0,0,1,1,0,0,BASELINE,0,NONE,0.33088994,-45,-47.36897718,-2.36897718,70,22,msl000399,v2,0,0,0,0,0
0,0,1,1,0,0,BASELINE,0,NONE,0.356419802,0,-1.122161607,-1.122161607,70,23,msl000399,v2,0,0,0,0,0
0,0,1,1,0,0,BASELINE,0,NONE,0.346210003,135,132.5136843,-2.486315651,70,24,msl000399,v2,0,0,0,0,0
0,0,1,1,0,1,BASELINE_AIM,0,NONE,0.518972874,180,-178.9163948,1.083605172,70,25,msl000399,v2,1.853818893,3.789816856,-90,1,0
0,0,1,1,0,1,BASELINE_AIM,0,NONE,0.486457825,45,54.24266681,9.242666807,70,26,msl000399,v2,0.913884163,2.825818062,135,1,0
0,0,1,1,0,1,BASELINE_AIM,0,NONE,0.373431921,135,144.4718332,9.47183321,70,27,msl000399,v2,0.94692421,3.31484127,-135,1,0
0,0,1,1,0,1,BASELINE_AIM,0,NONE,0.424583912,-45,-41.96381834,3.036181659,70,28,msl000399,v2,0.537713051,2.377688169,45,1,0
0,0,1,1,0,1,BASELINE_AIM,0,NONE,0.361153126,90,94.63342495,4.633424952,70,29,msl000399,v2,0.283164501,2.203044415,-180,1,0
0,0,1,1,0,1,BASELINE_AIM,0,NONE,0.370718002,-90,-91.02899467,-1.028994667,70,30,msl000399,v2,0.34035182,2.684374809,0,1,0
0,0,1,1,0,1,BASELINE_AIM,0,NONE,0.397853136,-135,-138.058401,-3.058401022,70,31,msl000399,v2,0.310575247,2.190492392,-45,1,0
0,0,1,1,0,1,BASELINE_AIM,0,NONE,0.392610073,0,6.709912455,6.709912455,70,32,msl000399,v2,0.108374357,2.100301504,90,1,0
0,0,1,1,0,1,BASELINE_AIM,0,NONE,0.347343922,135,143.902324,8.902324027,70,33,msl000399,v2,0.260159492,1.980093479,-135,1,0
0,0,1,1,0,1,BASELINE_AIM,0,NONE,0.349148035,0,4.088920226,4.088920226,70,34,msl000399,v2,0.287484407,1.919434309,90,1,0
0,0,1,1,0,1,BASELINE_AIM,0,NONE,0.312088013,180,-177.8340445,2.165955453,70,35,msl000399,v2,0.246721745,1.870641708,-90,1,99
0,0,1,1,0,1,BASELINE_AIM,0,NONE,0.424724102,-45,-40.62780605,4.37219395,70,36,msl000399,v2,0.288008451,1.816059589,45,1,99
0,0,1,1,0,1,BASELINE_AIM,0,NONE,0.361445904,90,85.96495435,-4.035045651,70,37,msl000399,v2,0.336434364,2.592404366,-180,1,99
0,0,1,1,0,1,BASELINE_AIM,0,NONE,0.398038864,-135,-138.113324,-3.11332402,70,38,msl000399,v2,0.118919611,1.734927654,-45,1,99
0,0,1,1,0,1,BASELINE_AIM,0,NONE,0.335598946,-90,-89.38635179,0.613648213,70,39,msl000399,v2,0.239070177,2.143011332,0,1,198
0,0,1,1,0,1,BASELINE_AIM,0,NONE,0.342036963,45,41.01670706,-3.983292936,70,40,msl000399,v2,0.135137796,1.935106754,135,1,198
0,0,1,1,0,1,BASELINE_AIM,0,NONE,0.423190832,45,43.92285016,-1.077149839,70,41,msl000399,v2,0.346212387,2.178209543,135,1,297
0,0,1,1,0,1,BASELINE_AIM,0,NONE,0.375089169,180,-171.9239514,8.076048567,70,42,msl000399,v2,0.238132715,1.862081766,-90,1,297
0,0,1,1,0,1,BASELINE_AIM,0,NONE,0.422600031,135,120.5376068,-14.46239321,70,43,msl000399,v2,0.429268837,2.141212702,-135,1,297
0,0,1,1,0,1,BASELINE_AIM,0,NONE,0.375793934,-135,-134.1587242,0.841275843,70,44,msl000399,v2,0.246797085,2.00673914,-45,1,297
0,0,1,1,0,1,BASELINE_AIM,0,NONE,0.360473156,90,85.44693295,-4.553067054,70,45,msl000399,v2,0.317130327,1.997003555,-180,1,297
0,0,1,1,0,1,BASELINE_AIM,0,NONE,0.398180962,0,-1.91033711,-1.91033711,70,46,msl000399,v2,0.292419195,1.89232111,90,1,396
0,0,1,1,0,1,BASELINE_AIM,0,NONE,0.386700869,-45,-36.50360883,8.496391175,70,47,msl000399,v2,0.225229502,1.849099398,45,1,396
0,0,1,1,0,1,BASELINE_AIM,0,NONE,0.397001982,-90,-89.29082823,0.709171771,70,48,msl000399,v2,0.109947205,1.709881306,0,1,396
0,0,1,1,0,1,BASELINE_AIM,0,NONE,0.360005856,90,91.01317383,1.01317383,70,49,msl000399,v2,0.233878374,1.881919384,-180,1,396
0,0,1,1,0,1,BASELINE_AIM,0,NONE,0.360926867,180,-171.3139726,8.686027384,70,50,msl000399,v2,0.227152109,2.235148191,-90,1,396
0,0,1,1,0,1,BASELINE_AIM,0,NONE,0.391877174,-45,-44.07307138,0.926928623,70,51,msl000399,v2,0.392196417,1.992153406,45,1,396
0,0,1,1,0,1,BASELINE_AIM,0,NONE,0.327749014,135,139.9449056,4.944905613,70,52,msl000399,v2,0.372159958,1.940256834,-135,1,495
0,0,1,1,0,1,BASELINE_AIM,0,NONE,0.461560965,-135,-150.3639445,-15.3639445,70,53,msl000399,v2,0.259722948,1.907608032,-45,1,495
0,0,1,1,0,1,BASELINE_AIM,0,NONE,0.361622095,45,42.92531137,-2.074688628,70,54,msl000399,v2,0.34028244,1.852290392,135,1,495
0,0,1,1,0,1,BASELINE_AIM,0,NONE,0.383354902,-90,-99.04545719,-9.045457193,70,55,msl000399,v2,0.268420696,1.884377718,0,1,495
0,0,1,1,0,1,BASELINE_AIM,0,NONE,0.424176931,0,8.419446654,8.419446654,70,56,msl000399,v2,0.280095577,1.904094696,90,1,495
0,0,1,1,0,1,BASELINE_AIM,0,NONE,0.375416994,45,44.9841479,-0.015852097,70,57,msl000399,v2,0.227468252,3.379414082,135,1,495
0,0,1,1,0,1,BASELINE_AIM,0,NONE,0.381434917,-135,-144.4385676,-9.438567584,70,58,msl000399,v2,0.435584307,2.331613302,-45,1,495
0,0,1,1,0,1,BASELINE_AIM,0,NONE,0.377698183,135,138.6269223,3.626922312,70,59,msl000399,v2,0.276100159,1.844026089,-135,1,495
0,0,1,1,0,1,BASELINE_AIM,0,NONE,0.359220982,0,0.215158741,0.215158741,70,60,msl000399,v2,0.314716339,1.794715166,90,1,495
0,0,1,1,0,1,BASELINE_AIM,0,NONE,0.397701979,-90,-90.66686952,-0.666869517,70,61,msl000399,v2,0.178649187,1.738705158,0,1,495
0,0,1,1,0,1,BASELINE_AIM,0,NONE,0.43701601,180,-175.8067414,4.193258566,70,62,msl000399,v2,0.225890636,1.713866711,-90,1,495
0,0,1,1,0,1,BASELINE_AIM,0,NONE,0.345714092,90,77.44710651,-12.55289349,70,63,msl000399,v2,0.63809824,2.262069225,-180,1,495
0,0,1,1,0,1,BASELINE_AIM,0,NONE,0.592652082,-45,-40.43306001,4.566939994,70,64,msl000399,v2,0.35215497,0.84010911,45,41.65951729,554
0,0,1,1,0,1,BASELINE_AIM,0,NONE,0.329050064,90,92.16279902,2.162799017,70,65,msl000399,v2,5.610131025,7.466086149,-180,1,554
0,0,1,1,0,1,BASELINE_AIM,0,NONE,0.356590986,180,-174.2652912,5.734708813,70,66,msl000399,v2,0.297490597,1.833412647,-90,1,554
0,0,1,1,0,1,BASELINE_AIM,0,NONE,0.363620996,-45,-38.10325709,6.896742908,70,67,msl000399,v2,0.301971674,1.941955566,45,1,554
0,0,1,1,0,1,BASELINE_AIM,0,NONE,0.347432137,135,136.6587671,1.658767133,70,68,msl000399,v2,1.111504316,2.647474289,-135,1,554
0,0,1,1,0,1,BASELINE_AIM,0,NONE,0.36848402,0,-4.808345585,-4.808345585,70,69,msl000399,v2,0.276330948,1.828291893,90,1,554
0,0,1,1,0,1,BASELINE_AIM,0,NONE,0.394873857,-135,-145.8204559,-10.8204559,70,70,msl000399,v2,0.296183825,1.768131733,-45,1,554
0,0,1,1,0,1,BASELINE_AIM,0,NONE,0.379127979,-90,-94.27505937,-4.275059371,70,71,msl000399,v2,0.431691647,1.823634624,0,1,554
0,0,1,1,0,1,BASELINE_AIM,0,NONE,0.406198025,45,49.65409453,4.654094528,70,72,msl000399,v2,0.378243208,1.914193153,135,1,554
1,-30,1,1,0,1,PERTURBATION,0,ROTATION,0.321943998,90,87.85169902,-2.148300979,70,73,msl000399,v2,0.309003115,2.828988075,-180,1,554
1,-30,1,1,0,1,PERTURBATION,0,ROTATION,0.846051931,-45,-50.82617744,-5.82617744,70,74,msl000399,v2,0.082746744,7.722744703,45,28.64836426,554
1,-30,1,1,0,1,PERTURBATION,0,ROTATION,0.618372917,180,-137.5125299,42.48747012,70,75,msl000399,v2,1.427556515,6.739553452,-51.13335056,29.31560287,554
1,-30,1,1,0,1,PERTURBATION,0,ROTATION,0.475840807,-90,-56.02702952,33.97297048,70,76,msl000399,v2,1.771074772,7.299144745,32.02745361,29.98284149,625
1,-30,1,1,0,1,PERTURBATION,0,ROTATION,0.46181798,-135,-141.5948158,-6.594815785,70,77,msl000399,v2,0.546046257,4.338055372,-45,33.31903458,625
1,-30,1,1,0,1,PERTURBATION,0,ROTATION,0.114037991,135,-175.428586,49.57141401,70,78,msl000399,v2,0.809006453,4.849017382,-102.8057367,39.65780144,625
1,-30,1,1,0,1,PERTURBATION,0,ROTATION,0.385020971,45,49.69374012,4.693740125,70,79,msl000399,v2,4.306860924,6.458941936,148.3447723,50,675
1,-30,1,1,0,1,PERTURBATION,0,ROTATION,0.399948835,0,40.0982211,40.0982211,70,80,msl000399,v2,0.831087351,3.623058319,125.697266,50,725
1,-30,1,1,0,1,PERTURBATION,0,ROTATION,0.372353792,90,112.3954771,22.39547711,70,81,msl000399,v2,1.667019606,4.227058649,-155.3121712,50,775
1,-30,1,1,0,1,PERTURBATION,0,ROTATION,0.404434919,-135,-114.3625442,20.63745581,70,82,msl000399,v2,0.338290453,2.786280394,-20.47898083,50,825
1,-30,1,1,0,1,PERTURBATION,0,ROTATION,0.379202843,45,68.70017296,23.70017296,70,83,msl000399,v2,0.68595314,4.005943298,161.522735,29.31560287,896
1,-30,1,1,0,1,PERTURBATION,0,ROTATION,0.539038897,0,33.23077929,33.23077929,70,84,msl000399,v2,0.641989946,4.458039999,116.3559254,1,896
1,-30,1,1,0,1,PERTURBATION,0,ROTATION,0.139748096,180,-135.0331855,44.96681451,70,85,msl000399,v2,0.741980553,5.566018581,-58.80659466,41.32589798,896
1,-30,1,1,0,1,PERTURBATION,0,ROTATION,0.40803194,135,149.7253684,14.72536842,70,86,msl000399,v2,0.308451176,3.068544149,-111.4798388,45.32932968,951
1,-30,1,1,0,1,PERTURBATION,0,ROTATION,0.453261852,-45,-28.85469346,16.14530654,70,87,msl000399,v2,0.415169239,3.079243183,69.68782883,50,1001
1,-30,1,1,0,1,PERTURBATION,0,ROTATION,0.439374208,-90,-59.18897475,30.81102525,70,88,msl000399,v2,0.359909534,2.607911587,29.69211845,50,1051
1,-30,1,1,0,1,PERTURBATION,0,ROTATION,0.726912975,-90,-59.72261242,30.27738758,70,89,msl000399,v2,0.246733665,3.526780605,24.68782883,50,1101
1,-30,1,1,0,1,PERTURBATION,0,ROTATION,0.554495811,45,69.50286723,24.50286723,70,90,msl000399,v2,0.605808496,3.821686506,159.8546385,50,1151
1,-30,1,1,0,1,PERTURBATION,0,ROTATION,0.41760087,180,-134.1008607,45.89913933,70,91,msl000399,v2,0.132722855,4.068779945,-61.14192982,38.99056282,1151
1,-30,1,1,0,1,PERTURBATION,0,ROTATION,0.068987846,135,-165.9525692,59.04743077,70,92,msl000399,v2,0.346181631,1.298187494,-135,50,1151
1,-30,1,1,0,1,PERTURBATION,0,ROTATION,0.835520029,-135,-126.2541798,8.74582016,70,93,msl000399,v2,0.141998053,1.430050135,-45,50,1201
1,-30,1,1,0,1,PERTURBATION,0,ROTATION,0.56731081,90,102.4922517,12.49225174,70,94,msl000399,v2,1.097018719,3.513047934,-161.1505091,50,1251
1,-30,1,1,0,1,PERTURBATION,0,ROTATION,0.49887991,-45,-16.26616147,28.73383853,70,95,msl000399,v2,1.23857832,8.318614244,73.02402191,56.00514755,1295
1,-30,1,1,0,1,PERTURBATION,0,ROTATION,0.579957008,0,28.70931653,28.70931653,70,96,msl000399,v2,0.365095377,4.757158279,112.8529226,62.67753372,1333
1,-30,1,1,0,1,PERTURBATION,0,ROTATION,0.470952988,-90,-54.09166434,35.90833566,70,97,msl000399,v2,0.44557023,3.805537224,27.02316399,34.98713112,1399
1,-30,1,1,0,1,PERTURBATION,0,ROTATION,0.456521988,0,35.84792295,35.84792295,70,98,msl000399,v2,0.585106611,3.729128599,118.6912605,45.66294899,1454
1,-30,1,1,0,1,PERTURBATION,0,ROTATION,0.477676868,180,-134.1481122,45.8518878,70,99,msl000399,v2,0.311554432,3.151567459,-61.64235878,50,1454
1,-30,1,1,0,1,PERTURBATION,0,ROTATION,0.41723299,135,117.6266119,-17.37338811,70,100,msl000399,v2,1.054149151,5.166191101,-155.3507778,59.34134064,1454
1,-30,1,1,0,1,PERTURBATION,0,ROTATION,0.449082851,-45,-26.28861645,18.71138355,70,101,msl000399,v2,0.726984024,3.99102807,72.02316399,50,1504
1,-30,1,1,0,1,PERTURBATION,0,ROTATION,0.433305025,90,122.1177411,32.11774109,70,102,msl000399,v2,0.665520906,4.921608925,-151.4755491,50,1554
1,-30,1,1,0,1,PERTURBATION,0,ROTATION,0.497079134,45,80.92813178,35.92813178,70,103,msl000399,v2,0.394060373,6.362076283,162.023164,59.67495995,1595
1,-30,1,1,0,1,PERTURBATION,0,ROTATION,0.424299955,-135,-124.4703525,10.52964747,70,104,msl000399,v2,3.066376448,8.22647953,-18.81088428,50,1645
1,-30,1,1,0,1,PERTURBATION,0,ROTATION,0.583549976,45,94.37484826,49.37484826,70,105,msl000399,v2,2.285663605,6.613696575,167.0274536,55.33790894,1690
1,-30,1,1,0,1,PERTURBATION,0,ROTATION,0.611102104,180,-141.5423546,38.45764543,70,106,msl000399,v2,2.219401598,4.851453543,-68.4815546,58.67410202,1690
1,-30,1,1,0,1,PERTURBATION,0,ROTATION,0.729373932,90,116.1827972,26.18279724,70,107,msl000399,v2,0.736315727,4.232370853,-166.1547987,57.00600548,1733
1,-30,1,1,0,1,PERTURBATION,0,ROTATION,0.493455887,0,32.59342153,32.59342153,70,108,msl000399,v2,0.401803017,3.561774969,105.6801075,46.66380692,1787
1,-30,1,1,0,1,PERTURBATION,0,ROTATION,0.468701124,-90,-61.72587035,28.27412965,70,109,msl000399,v2,0.524005175,4.852076292,13.34477234,1,1886
1,-30,1,1,0,1,PERTURBATION,0,ROTATION,0.397897959,135,-175.7051979,49.29480207,70,110,msl000399,v2,0.773977518,3.773979425,-118.8194635,50,1936
1,-30,1,1,0,1,PERTURBATION,0,ROTATION,0.407950163,-45,-42.31148488,2.688515119,70,111,msl000399,v2,0.445484161,3.389506102,48.50300274,50,1986
1,-30,1,1,0,1,PERTURBATION,0,ROTATION,0.413284063,-135,-101.2478776,33.75212238,70,112,msl000399,v2,0.050957441,3.370994568,-20.31217117,50,2036
1,-30,1,1,0,1,PERTURBATION,0,ROTATION,0.376995087,45,82.31082617,37.31082617,70,113,msl000399,v2,0.322618484,2.194642544,150.3464882,50,2086
1,-30,1,1,0,1,PERTURBATION,0,ROTATION,0.390042067,0,28.1850526,28.1850526,70,114,msl000399,v2,0.391137362,2.495233297,101.6766758,50,2136
1,-30,1,1,0,1,PERTURBATION,0,ROTATION,0.603779078,-45,-21.87644359,23.12355641,70,115,msl000399,v2,0.768661737,2.22465086,45,50,2186
1,-30,1,1,0,1,PERTURBATION,0,ROTATION,0.47279501,-90,-53.89513348,36.10486652,70,116,msl000399,v2,0.401246309,2.457243204,17.18139439,50,2236
1,-30,1,1,0,1,PERTURBATION,0,ROTATION,0.323028088,135,-177.9333413,47.06665873,70,117,msl000399,v2,0.452914715,3.004983664,-117.151367,50,2286
1,-30,1,1,0,1,PERTURBATION,0,ROTATION,0.377918005,90,116.673365,26.673365,70,118,msl000399,v2,0.257645607,2.657694817,-168.3233242,56.00514755,2330
1,-30,1,1,0,1,PERTURBATION,0,ROTATION,0.422605991,-135,-114.1436794,20.85632061,70,119,msl000399,v2,0.409933567,2.017966747,-32.32246628,50,2380
1,-30,1,1,0,1,PERTURBATION,0,ROTATION,0.682806969,180,-144.831318,35.16868197,70,120,msl000399,v2,0.373061895,2.109102964,-75.82117939,50,2380
1,-30,1,1,0,1,PERTURBATION,0,ROTATION,0.508213043,0,34.45758935,34.45758935,70,121,msl000399,v2,0.41178441,3.491854429,99.8417696,42.66037521,2438
1,-30,1,1,0,1,PERTURBATION,0,ROTATION,0.443197966,-135,-123.9989552,11.00104477,70,122,msl000399,v2,0.355690241,3.931649208,-33.82375317,1,2438
1,-30,1,1,0,1,PERTURBATION,0,ROTATION,0.417546988,180,-141.756621,38.24337903,70,123,msl000399,v2,1.070758104,3.182776213,-75.82117939,50,2438
1,-30,1,1,0,1,PERTURBATION,0,ROTATION,0.247356176,-90,-60.2705859,29.7294141,70,124,msl000399,v2,0.49042654,3.426425695,10.34219856,56.00514755,2482
1,-30,1,1,0,1,PERTURBATION,0,ROTATION,0.356718063,45,71.3453101,26.3453101,70,125,msl000399,v2,0.698823452,2.690874577,146.6766758,50,2532
1,-30,1,1,0,1,PERTURBATION,0,ROTATION,0.437983036,-45,-37.02437499,7.975625013,70,126,msl000399,v2,0.759590864,3.127707958,59.17882061,50,2582
1,-30,1,1,0,1,PERTURBATION,0,ROTATION,0.394731998,90,131.5030806,41.50308056,70,127,msl000399,v2,0.327448606,3.391520739,-165.3207504,50,2632
1,-30,1,1,0,1,PERTURBATION,0,ROTATION,0.444997072,135,172.8925962,37.89259624,70,128,msl000399,v2,0.748134851,3.57207489,-120.1539408,50,2682
1,-30,1,1,0,1,PERTURBATION,0,ROTATION,0.473906994,180,-142.8697695,37.13023048,70,129,msl000399,v2,0.764410019,4.148482084,-76.48841801,1,2682
1,-30,1,1,0,1,PERTURBATION,0,ROTATION,0.564077854,-90,-65.7536047,24.2463953,70,130,msl000399,v2,0.339457989,2.4034729,11.00943718,42.32675591,2740
1,-30,1,1,0,1,PERTURBATION,0,ROTATION,0.540177107,-45,-28.66800082,16.33199918,70,131,msl000399,v2,0.297537088,5.32161808,55.50900822,43.66123314,2797
1,-30,1,1,0,1,PERTURBATION,0,ROTATION,0.417491913,45,81.99815545,36.99815545,70,132,msl000399,v2,0.811553717,4.187654734,148.011153,50,2847
1,-30,1,1,0,1,PERTURBATION,0,ROTATION,0.397738934,0,16.7656825,16.7656825,70,133,msl000399,v2,0.514509916,3.226538897,103.1779627,45.66294899,2902
1,-30,1,1,0,1,PERTURBATION,0,ROTATION,0.687637806,135,166.5178838,31.5178838,70,134,msl000399,v2,0.483596087,3.107562065,-119.4867022,38.65694351,2964
1,-30,1,1,0,1,PERTURBATION,0,ROTATION,0.379868031,90,117.9765242,27.97652416,70,135,msl000399,v2,0.430187941,3.310257912,-161.650938,33.31903458,3031
1,-30,1,1,0,1,PERTURBATION,0,ROTATION,0.39842701,-135,-122.5157078,12.4842922,70,136,msl000399,v2,0.343336582,3.29522562,-24.98284149,34.3198925,3097
1,-30,1,1,0,1,PERTURBATION,0,ROTATION,0.465754986,135,170.9242731,35.92427314,70,137,msl000399,v2,0.263022661,6.615173817,-114.6492222,35.32075043,3162
1,-30,1,1,0,1,PERTURBATION,0,ROTATION,0.60887599,-45,-10.95306549,34.04693451,70,138,msl000399,v2,0.187197208,2.891244411,60.34648819,28.31474495,3234
1,-30,1,1,0,1,PERTURBATION,0,ROTATION,0.428367853,0,26.12256069,26.12256069,70,139,msl000399,v2,0.630174637,3.6941607,107.0145847,37.9897049,3297
1,-30,1,1,0,1,PERTURBATION,0,ROTATION,0.431025028,-135,-105.9878185,29.01218146,70,140,msl000399,v2,0.343470335,3.951543331,-31.82203732,32.31817665,3365
1,-30,1,1,0,1,PERTURBATION,0,ROTATION,0.37617588,180,-140.3336579,39.66634213,70,141,msl000399,v2,0.662351131,4.510384321,-75.48756008,27.64750633,3365
1,-30,1,1,0,1,PERTURBATION,0,ROTATION,0.671818018,45,54.12761698,9.127616977,70,142,msl000399,v2,0.748496294,2.020512342,145.0085793,50,3415
1,-30,1,1,0,1,PERTURBATION,0,ROTATION,0.452061176,90,105.7138763,15.71387631,70,143,msl000399,v2,0.129018784,4.257066965,-165.987989,38.3233242,3477
1,-30,1,1,0,1,PERTURBATION,0,ROTATION,0.391033173,-90,-64.34184174,25.65815826,70,144,msl000399,v2,0.46128583,3.117317677,13.8452013,38.99056282,3539
1,-30,1,1,0,1,PERTURBATION,0,ROTATION,0.450484991,-45,-9.633518268,35.36648173,70,145,msl000399,v2,0.52965641,3.457671642,61.68096542,50,3589
1,-30,1,1,0,1,PERTURBATION,0,ROTATION,0.246078014,45,78.81098077,33.81098077,70,146,msl000399,v2,0.351232529,2.943250418,154.5167295,34.65351181,3655
1,-30,1,1,0,1,PERTURBATION,0,ROTATION,0.447726965,-90,-77.18560052,12.81439948,70,147,msl000399,v2,0.308175802,3.116213799,16.34734612,46.33018761,3709
1,-30,1,1,0,1,PERTURBATION,0,ROTATION,0.3300488,90,133.660576,43.66057596,70,148,msl000399,v2,0.396463633,2.484571695,-165.6543697,40.65865936,3769
1,-30,1,1,0,1,PERTURBATION,0,ROTATION,0.475914001,0,23.02692548,23.02692548,70,149,msl000399,v2,0.28412652,4.532117367,105.3464882,46.66380692,3823
1,-30,1,1,0,1,PERTURBATION,0,ROTATION,0.621371984,135,159.6389826,24.63898257,70,150,msl000399,v2,0.494630098,6.350723982,-120.1539408,46.33018761,3877
1,-30,1,1,0,1,PERTURBATION,0,ROTATION,0.083023071,-135,-116.9870959,18.01290409,70,151,msl000399,v2,1.051820993,5.059920073,-29.65351181,37.9897049,3940
1,-30,1,1,0,1,PERTURBATION,0,ROTATION,0.14764595,180,-150.5831529,29.41684707,70,152,msl000399,v2,0.376010418,2.775952339,-75.98798904,38.3233242,3940
1,-30,1,1,0,1,PERTURBATION,0,ROTATION,0.666653872,90,111.9687437,21.96874374,70,153,msl000399,v2,0.367065668,6.279144526,-166.6552277,37.32246628,4003
1,-30,1,1,0,1,PERTURBATION,0,ROTATION,0.430634022,-45,-25.80948406,19.19051594,70,154,msl000399,v2,0.290245771,2.706267595,61.34734612,34.98713112,4069
1,-30,1,1,0,1,PERTURBATION,0,ROTATION,0.287707806,135,165.1951248,30.19512484,70,155,msl000399,v2,0.462027788,3.390049696,-120.987989,26.98026772,4143
1,-30,1,1,0,1,PERTURBATION,0,ROTATION,0.33635211,-90,-60.72195067,29.27804933,70,156,msl000399,v2,1.002645969,4.042685986,11.17624683,36.65522766,4207
1,-30,1,1,0,1,PERTURBATION,0,ROTATION,0.291223049,45,82.71742468,37.71742468,70,157,msl000399,v2,0.381164789,4.477266788,147.0102951,34.65351181,4273
1,-30,1,1,0,1,PERTURBATION,0,ROTATION,0.361264944,0,27.9328346,27.9328346,70,158,msl000399,v2,0.975915432,3.519934416,101.5098661,42.32675591,4331
1,-30,1,1,0,1,PERTURBATION,0,ROTATION,0.491460085,-135,-111.1707666,23.82923342,70,159,msl000399,v2,0.807224035,3.687298059,-28.65265388,42.66037521,4389
1,-30,1,1,0,1,PERTURBATION,0,ROTATION,0.540052891,180,-156.8640836,23.13591638,70,160,msl000399,v2,0.561493635,4.953560591,-90,67.34820404,4389
1,-30,1,1,0,1,PERTURBATION,0,ROTATION,0.49186492,90,117.9610131,27.9610131,70,161,msl000399,v2,0.399867535,6.880048513,-170.3250401,50,4439
1,-30,1,1,0,1,PERTURBATION,0,ROTATION,0.428369999,-45,-16.00583342,28.99416658,70,162,msl000399,v2,0.390511274,3.310542107,56.00943718,42.66037521,4497
1,-30,1,1,0,1,PERTURBATION,0,ROTATION,0.398989916,180,-158.6126323,21.3873677,70,163,msl000399,v2,0.397213459,3.997305393,-79.49099178,39.65780144,4497
1,-30,1,1,0,1,PERTURBATION,0,ROTATION,0.307682037,45,79.9373977,34.9373977,70,164,msl000399,v2,0.472428083,4.400538921,147.1771048,42.32675591,4555
1,-30,1,1,0,1,PERTURBATION,0,ROTATION,0.30645299,-135,-116.8391892,18.16081078,70,165,msl000399,v2,0.275504351,4.083526373,-30.32075043,36.98884697,4619
1,-30,1,1,0,1,PERTURBATION,0,ROTATION,0.414376974,-90,-69.42789738,20.57210262,70,166,msl000399,v2,0.341141939,2.469213009,11.84348545,50,4669
1,-30,1,1,0,1,PERTURBATION,0,ROTATION,0.566350937,135,161.6629989,26.6629989,70,167,msl000399,v2,0.350306749,3.406436682,-117.8186056,50,4719
1,-30,1,1,0,1,PERTURBATION,0,ROTATION,0.394526005,0,15.96603177,15.96603177,70,168,msl000399,v2,0.820547581,4.084670782,90,58.34048271,4761
1,-30,1,1,0,1,PERTURBATION,0,ROTATION,0.369248867,135,-168.1912215,56.80877848,70,169,msl000399,v2,0.639086723,2.911070824,-115.8168898,50,4761
1,-30,1,1,0,1,PERTURBATION,0,ROTATION,0.162225008,180,-158.6351125,21.36488753,70,170,msl000399,v2,0.645078897,10.01319575,-82.15994625,42.66037521,4761
1,-30,1,1,0,1,PERTURBATION,0,ROTATION,0.548080921,-45,-10.83876027,34.16123973,70,171,msl000399,v2,0.289999723,3.306083918,59.01201096,49.66638069,4812
1,-30,1,1,0,1,PERTURBATION,0,ROTATION,0.563253164,0,29.45760027,29.45760027,70,172,msl000399,v2,0.414617777,2.798651934,101.0094372,50,4862
1,-30,1,1,0,1,PERTURBATION,0,ROTATION,0.370970964,45,62.41859129,17.41859129,70,173,msl000399,v2,0.329556942,2.217566013,150.5132978,50,4912
1,-30,1,1,0,1,PERTURBATION,0,ROTATION,0.628076077,-90,-66.39029937,23.60970063,70,174,msl000399,v2,0.341926575,2.029886723,13.8452013,50,4962
1,-30,1,1,0,1,PERTURBATION,0,ROTATION,0.376219988,90,137.063357,47.06335704,70,175,msl000399,v2,0.350378752,2.110362768,-164.8203215,50,5012
1,-30,1,1,0,1,PERTURBATION,0,ROTATION,0.464105129,-135,-112.7506753,22.24932475,70,176,msl000399,v2,0.646751642,2.414820671,-26.81774769,50,5062
1,-30,1,1,0,1,PERTURBATION,0,ROTATION,0.424683094,-90,-69.03963134,20.96036866,70,177,msl000399,v2,0.319137573,3.679186583,18.68268127,50,5112
1,-30,1,1,0,1,PERTURBATION,0,ROTATION,0.444190025,0,33.56009941,33.56009941,70,178,msl000399,v2,0.324067116,2.812094212,108.349062,50,5162
1,-30,1,1,0,1,PERTURBATION,0,ROTATION,0.615440845,90,107.0375796,17.03757962,70,179,msl000399,v2,0.757083654,2.685154676,-174.9957104,50,5212
1,-30,1,1,0,1,PERTURBATION,0,ROTATION,0.452247858,180,-146.0696476,33.93035244,70,180,msl000399,v2,0.316675186,2.06866622,-75.32075043,50,5212
1,-30,1,1,0,1,PERTURBATION,0,ROTATION,0.497545958,-135,-114.4817109,20.51828909,70,181,msl000399,v2,0.817209482,2.849254608,-29.98713112,50,5262
1,-30,1,1,0,1,PERTURBATION,0,ROTATION,0.422261,135,169.397576,34.39757603,70,182,msl000399,v2,0.954543591,3.706629753,-129.4952814,50,5312
1,-30,1,1,0,1,PERTURBATION,0,ROTATION,0.407991886,-45,-28.4835884,16.5164116,70,183,msl000399,v2,0.166867733,2.494933844,63.34906197,50,5362
1,-30,1,1,0,1,PERTURBATION,0,ROTATION,0.577570915,45,75.53249469,30.53249469,70,184,msl000399,v2,0.52684474,4.486961603,144.0077213,41.65951729,5421
1,-30,1,1,0,1,PERTURBATION,0,ROTATION,0.663594007,-135,-104.5444009,30.45559908,70,185,msl000399,v2,0.440472841,4.576599836,-23.31474495,20.64150085,5501
1,-30,1,1,0,1,PERTURBATION,0,ROTATION,0.445197821,135,154.6903062,19.69030625,70,186,msl000399,v2,1.018825054,2.930814981,-131.6638069,36.32160835,5565
1,-30,1,1,0,1,PERTURBATION,0,ROTATION,0.590888977,180,-142.0614567,37.93854334,70,187,msl000399,v2,0.459770918,3.083837032,-73.31903458,37.9897049,5565
1,-30,1,1,0,1,PERTURBATION,0,ROTATION,0.468429089,45,64.87859074,19.87859074,70,188,msl000399,v2,0.910541058,4.286609888,143.1736731,45.66294899,5620
1,-30,1,1,0,1,PERTURBATION,0,ROTATION,0.361313105,0,26.45782736,26.45782736,70,189,msl000399,v2,0.434289694,3.722368717,105.3464882,50,5670
1,-30,1,1,0,1,PERTURBATION,0,ROTATION,0.48917985,90,113.9056816,23.90568163,70,190,msl000399,v2,0.296290636,5.024374723,-173.1608042,38.3233242,5732
1,-30,1,1,0,1,PERTURBATION,0,ROTATION,0.485778093,-45,-30.69325112,14.30674888,70,191,msl000399,v2,0.548056602,3.188165426,63.51587162,37.9897049,5795
1,-30,1,1,0,1,PERTURBATION,0,ROTATION,0.547895193,-90,-64.30333267,25.69666733,70,192,msl000399,v2,0.357154131,3.461238146,21.8520647,33.98627319,5862
1,-30,1,1,0,1,PERTURBATION,0,ROTATION,0.915355921,135,177.1494537,42.1494537,70,193,msl000399,v2,0.212189674,3.812349796,-103.9734043,34.98713112,5928
1,-30,1,1,0,1,PERTURBATION,0,ROTATION,0.502584934,90,125.2460199,35.24601986,70,194,msl000399,v2,0.943223238,3.487243176,-174.9957104,46.99742622,5982
1,-30,1,1,0,1,PERTURBATION,0,ROTATION,0.635997057,-45,-14.9181326,30.0818674,70,195,msl000399,v2,0.35419488,3.698180914,57.67753372,34.98713112,6048
1,-30,1,1,0,1,PERTURBATION,0,ROTATION,0.374479055,0,6.086985413,6.086985413,70,196,msl000399,v2,1.209621191,4.265758991,108.6826813,39.99142075,6109
1,-30,1,1,0,1,PERTURBATION,0,ROTATION,0.460268974,45,78.09723798,33.09723798,70,197,msl000399,v2,0.281619549,6.081768513,146.0094372,38.65694351,6171
1,-30,1,1,0,1,PERTURBATION,0,ROTATION,0.547227859,-135,-117.3318672,17.66813276,70,198,msl000399,v2,0.580351591,3.404474497,-20.97940979,29.31560287,6242
1,-30,1,1,0,1,PERTURBATION,0,ROTATION,0.614010096,180,-158.8035364,21.19646356,70,199,msl000399,v2,0.287028313,3.231138229,-69.31560287,35.65436974,6242
1,-30,1,1,0,1,PERTURBATION,0,ROTATION,0.53719306,-90,-57.44497959,32.55502041,70,200,msl000399,v2,0.467509985,1.795552015,19.6835392,50,6292
1,-30,1,1,0,1,PERTURBATION,0,ROTATION,0.535082817,-45,-4.72531518,40.27468482,70,201,msl000399,v2,0.599104881,2.399175882,66.35163574,23.97769394,6369
1,-30,1,1,0,1,PERTURBATION,0,ROTATION,0.318078041,45,81.49234792,36.49234792,70,202,msl000399,v2,0.500273228,4.164332151,144.8417696,38.99056282,6431
1,-30,1,1,0,1,PERTURBATION,0,ROTATION,0.446156979,135,175.5778761,40.57787607,70,203,msl000399,v2,0.422044039,6.262120008,-125.9922787,28.31474495,6503
1,-30,1,1,0,1,PERTURBATION,0,ROTATION,0.416502953,0,18.78757471,18.78757471,70,204,msl000399,v2,0.563864946,2.947879791,107.0145847,33.31903458,6570
1,-30,1,1,0,1,PERTURBATION,0,ROTATION,0.074096918,180,-154.6374952,25.36250478,70,205,msl000399,v2,0.782889843,5.263008833,-70.81688976,37.9897049,6570
1,-30,1,1,0,1,PERTURBATION,0,ROTATION,0.413072824,-135,-107.1552874,27.8447126,70,206,msl000399,v2,0.358057499,2.518040419,-19.81174221,36.65522766,6634
1,-30,1,1,0,1,PERTURBATION,0,ROTATION,0.450587034,-90,-62.99078406,27.00921594,70,207,msl000399,v2,0.358608484,2.422573566,19.51672955,27.64750633,6707
1,-30,1,1,0,1,PERTURBATION,0,ROTATION,0.703769922,90,116.2927991,26.29279906,70,208,msl000399,v2,0.788512468,4.060616493,-174.4952814,42.66037521,6765
1,-30,1,1,0,1,PERTURBATION,0,ROTATION,0.377834082,0,32.46888373,32.46888373,70,209,msl000399,v2,0.439223766,3.847214937,111.6852551,40.65865936,6825
1,-30,1,1,0,1,PERTURBATION,0,ROTATION,0.265980005,90,120.6657849,30.66578494,70,210,msl000399,v2,0.764032841,4.652192831,-172.8271849,33.31903458,6892
1,-30,1,1,0,1,PERTURBATION,0,ROTATION,0.591551065,180,-155.4074486,24.59255139,70,211,msl000399,v2,0.143996716,2.192030668,-66.3130291,18.639785,6892
1,-30,1,1,0,1,PERTURBATION,0,ROTATION,0.511011839,135,168.6198849,33.61988488,70,212,msl000399,v2,0.90614295,4.130153894,-114.8160318,39.65780144,6953
1,-30,1,1,0,1,PERTURBATION,0,ROTATION,0.403611898,-135,-117.1892048,17.81079521,70,213,msl000399,v2,0.281858206,2.481860161,-20.47898083,27.98112564,7026
1,-30,1,1,0,1,PERTURBATION,0,ROTATION,0.358850002,45,78.14485378,33.14485378,70,214,msl000399,v2,0.297358751,4.121434689,147.5107241,42.32675591,7084
1,-30,1,1,0,1,PERTURBATION,0,ROTATION,0.403626919,-45,-22.15374827,22.84625173,70,215,msl000399,v2,0.37069726,1.882662296,62.68182335,29.64922218,7155
1,-30,1,1,0,1,PERTURBATION,0,ROTATION,0.552212954,-90,-63.86430802,26.13569198,70,216,msl000399,v2,0.248079777,2.224062681,23.18654194,27.98112564,7228
1,-30,1,1,0,1,PERTURBATION,0,ROTATION,0.362976074,90,115.3288469,25.32884687,70,217,msl000399,v2,0.440158844,2.352155924,-174.4952814,38.99056282,7290
1,-30,1,1,0,1,PERTURBATION,0,ROTATION,0.379005909,45,86.78685584,41.78685584,70,218,msl000399,v2,0.313773394,5.209879398,145.5090082,46.66380692,7344
1,-30,1,1,0,1,PERTURBATION,0,ROTATION,0.565742016,0,23.87880589,23.87880589,70,219,msl000399,v2,0.345654964,2.497669935,100.3421986,44.32847176,7400
1,-30,1,1,0,1,PERTURBATION,0,ROTATION,0.684412956,180,-150.7467752,29.2532248,70,220,msl000399,v2,0.359538794,2.103564978,-65.81260014,36.65522766,7400
1,-30,1,1,0,1,PERTURBATION,0,ROTATION,0.387216091,135,171.8108118,36.81081178,70,221,msl000399,v2,0.995058775,2.810996771,-128.8280428,44.99571037,7456
1,-30,1,1,0,1,PERTURBATION,0,ROTATION,0.376231194,-45,-23.72493355,21.27506645,70,222,msl000399,v2,0.426468134,3.602515221,52.50643444,39.99142075,7517
1,-30,1,1,0,1,PERTURBATION,0,ROTATION,0.367620945,-135,-122.5487211,12.45127889,70,223,msl000399,v2,1.210305691,2.810314655,-45,39.32418213,7578
1,-30,1,1,0,1,PERTURBATION,0,ROTATION,0.407696962,-90,-81.47423522,8.525764781,70,224,msl000399,v2,1.375044107,3.455060959,-6.171957207,41.65951729,7637
1,-30,1,1,0,1,PERTURBATION,0,ROTATION,0.456115007,90,118.0593169,28.0593169,70,225,msl000399,v2,0.727477074,6.839649916,-170.6586594,52.66895447,7685
1,-30,1,1,0,1,PERTURBATION,0,ROTATION,0.377156973,-90,-65.34389998,24.65610002,70,226,msl000399,v2,0.317536116,3.069615126,8.006863403,39.65780144,7746
1,-30,1,1,0,1,PERTURBATION,0,ROTATION,0.339267969,180,-141.6299159,38.37008407,70,227,msl000399,v2,0.488352299,2.424353361,-79.99142075,42.99399452,7746
1,-30,1,1,0,1,PERTURBATION,0,ROTATION,0.451590061,135,168.3598755,33.35987548,70,228,msl000399,v2,0.393541813,3.305605888,-124.8246111,21.64235878,7825
1,-30,1,1,0,1,PERTURBATION,0,ROTATION,0.299465895,-135,-110.1714478,24.82855224,70,229,msl000399,v2,0.276514292,3.596596241,-34.99142075,11.30016022,7914
1,-30,1,1,0,1,PERTURBATION,0,ROTATION,0.476217031,0,27.33249134,27.33249134,70,230,msl000399,v2,0.336023569,3.176048517,101.1762468,1,7914
1,-30,1,1,0,1,PERTURBATION,0,ROTATION,0.340847015,-45,-15.7974393,29.2025607,70,231,msl000399,v2,0.291140318,2.331130266,54.50815029,9.965682983,8005
1,-30,1,1,0,1,PERTURBATION,0,ROTATION,0.383090973,45,70.98474285,25.98474285,70,232,msl000399,v2,0.34837079,4.268431664,145.6758179,1,8005
1,-30,1,1,0,1,PERTURBATION,0,ROTATION,0.354951859,135,165.8008728,30.80087276,70,233,msl000399,v2,0.326437712,2.870396852,-122.9897049,27.98112564,8078
1,-30,1,1,0,1,PERTURBATION,0,ROTATION,0.339884996,180,-145.733452,34.26654802,70,234,msl000399,v2,0.60450983,2.708498955,-77.82289524,29.64922218,8078
1,-30,1,1,0,1,PERTURBATION,0,ROTATION,0.247910976,0,20.92361167,20.92361167,70,235,msl000399,v2,0.234410524,2.242397547,102.1771048,25.31217117,8153
1,-30,1,1,0,1,PERTURBATION,0,ROTATION,0.332490921,-135,-113.4365763,21.56342366,70,236,msl000399,v2,0.260806561,2.452923775,-31.1547987,30.3164608,8223
1,-30,1,1,0,1,PERTURBATION,0,ROTATION,0.362785816,45,59.32834002,14.32834002,70,237,msl000399,v2,0.229658127,1.805640936,143.8409117,39.65780144,8284
1,-30,1,1,0,1,PERTURBATION,0,ROTATION,0.321749926,90,119.4991751,29.49917512,70,238,msl000399,v2,0.168898106,2.817041159,-172.9939945,42.99399452,8342
1,-30,1,1,0,1,PERTURBATION,0,ROTATION,0.46945405,-90,-76.41267523,13.58732477,70,239,msl000399,v2,0.242212296,2.122238398,10.00857925,31.65093803,8411
1,-30,1,1,0,1,PERTURBATION,0,ROTATION,0.437711954,-45,-5.744069543,39.25593046,70,240,msl000399,v2,0.307868004,2.155919075,58.67839165,32.65179596,8479
1,-30,1,1,0,1,PERTURBATION,0,ROTATION,0.397557974,90,109.2648233,19.26482327,70,241,msl000399,v2,0.764349461,3.132393599,-172.6603752,28.64836426,8551
1,-30,1,1,0,1,PERTURBATION,0,ROTATION,0.3904531,0,28.52211825,28.52211825,70,242,msl000399,v2,0.32855463,5.048607588,101.3430565,26.98026772,8625
1,-30,1,1,0,1,PERTURBATION,0,ROTATION,0.561295033,180,-156.884272,23.11572796,70,243,msl000399,v2,0.28484869,1.820860863,-76.82203732,30.65008011,8625
1,-30,1,1,0,1,PERTURBATION,0,ROTATION,0.472223997,-45,-9.941407812,35.05859219,70,244,msl000399,v2,0.279999018,1.759992123,58.51158199,20.64150085,8705
1,-30,1,1,0,1,PERTURBATION,0,ROTATION,0.393115997,135,158.5995737,23.59957366,70,245,msl000399,v2,0.288689852,2.488652945,-125.3250401,19.64064293,8786
1,-30,1,1,0,1,PERTURBATION,0,ROTATION,0.419809818,-135,-108.4841109,26.51588906,70,246,msl000399,v2,0.195932865,1.963945866,-27.98541527,14.96997261,8872
1,-30,1,1,0,1,PERTURBATION,0,ROTATION,0.599650145,45,83.36571588,38.36571588,70,247,msl000399,v2,0.312618971,2.42462492,147.1771048,14.6363533,8872
1,-30,1,1,0,1,PERTURBATION,0,ROTATION,0.479868889,-90,-71.41919971,18.58080029,70,248,msl000399,v2,0.198635101,3.030663967,13.8452013,23.97769394,8949
1,-30,1,1,0,1,PERTURBATION,0,ROTATION,0.397209883,135,166.4039619,31.40396194,70,249,msl000399,v2,0.197935581,1.853948593,-123.4901339,17.63892708,9032
1,-30,1,1,0,1,PERTURBATION,0,ROTATION,0.471979141,180,-149.6373653,30.36263465,70,250,msl000399,v2,0.265873909,2.02588582,-68.81517391,20.64150085,9032
1,-30,1,1,0,1,PERTURBATION,0,ROTATION,0.396692991,0,32.03095667,32.03095667,70,251,msl000399,v2,0.221282244,3.413330317,104.012011,21.64235878,9111
1,-30,1,1,0,1,PERTURBATION,0,ROTATION,0.204922915,-90,-52.65309922,37.34690078,70,252,msl000399,v2,0.3558321,4.451956034,18.18225231,28.31474495,9183
1,-30,1,1,0,1,PERTURBATION,0,ROTATION,0.271297932,-45,-20.54279304,24.45720696,70,253,msl000399,v2,0.353817463,4.905891418,59.84605923,28.98198357,9255
1,-30,1,1,0,1,PERTURBATION,0,ROTATION,0.831209183,45,51.59439823,6.594398226,70,254,msl000399,v2,1.405820847,4.677862883,152.6818233,16.30444984,9255
1,-30,1,1,0,1,PERTURBATION,0,ROTATION,0.603524923,-135,-112.4785462,22.5214538,70,255,msl000399,v2,0.52909708,6.697248936,-19.31131325,61.00943718,9294
1,-30,1,1,0,1,PERTURBATION,0,ROTATION,0.547451019,90,142.6320859,52.63208593,70,256,msl000399,v2,1.162890911,5.619023085,-161.1505091,54.0034317,9340
1,-30,1,1,0,1,PERTURBATION,0,ROTATION,0.438164949,90,118.1171852,28.11718515,70,257,msl000399,v2,0.476745844,4.348814726,-176.163378,58.0068634,9382
1,-30,1,1,0,1,PERTURBATION,0,ROTATION,0.495565891,-135,-129.7636714,5.236328554,70,258,msl000399,v2,0.717316389,5.693481445,-51.17195721,53.00257378,9429
1,-30,1,1,0,1,PERTURBATION,0,ROTATION,0.344558001,45,60.5338049,15.5338049,70,259,msl000399,v2,1.196154833,3.116142988,143.1736731,50,9479
1,-30,1,1,0,1,PERTURBATION,0,ROTATION,0.423352957,135,170.1293125,35.12931248,70,260,msl000399,v2,0.298552513,2.994582653,-127.6603752,57.33962479,9522
1,-30,1,1,0,1,PERTURBATION,0,ROTATION,0.449041128,0,3.879217239,3.879217239,70,261,msl000399,v2,0.265743017,2.857783079,97.67324409,50,9572
1,-30,1,1,0,1,PERTURBATION,0,ROTATION,0.309338093,-90,-57.14136282,32.85863718,70,262,msl000399,v2,0.370427132,2.426391125,16.18053646,50,9622
1,-30,1,1,0,1,PERTURBATION,0,ROTATION,0.273207903,180,-152.1267794,27.87322057,70,263,msl000399,v2,0.28590703,2.92599988,-75.32075043,43.99485245,9622
1,-30,1,1,0,1,PERTURBATION,0,ROTATION,0.393110037,-45,-17.16777271,27.83222729,70,264,msl000399,v2,0.378382683,2.33045578,55.34219856,50,9672
1,-30,1,1,0,1,PERTURBATION,0,ROTATION,0.452971935,0,11.6165771,11.6165771,70,265,msl000399,v2,0.440452337,1.720462322,90,50,9722
1,-30,1,1,0,1,PERTURBATION,0,ROTATION,0.623034954,-90,-77.42061385,12.57938615,70,266,msl000399,v2,0.516129017,2.30012989,11.6766758,50,9772
1,-30,1,1,0,1,PERTURBATION,0,ROTATION,0.379761934,90,113.1532428,23.15324281,70,267,msl000399,v2,0.566765547,2.198792696,-174.1616621,50,9822
1,-30,1,1,0,1,PERTURBATION,0,ROTATION,0.46677494,135,-176.5144248,48.48557522,70,268,msl000399,v2,0.358760357,4.550861359,-122.3224663,52.33533516,9870
1,-30,1,1,0,1,PERTURBATION,0,ROTATION,0.313344955,45,76.21421218,31.21421218,70,269,msl000399,v2,1.052671432,3.996507406,145.1753889,50,9920
1,-30,1,1,0,1,PERTURBATION,0,ROTATION,0.365522146,180,-148.9222211,31.0777789,70,270,msl000399,v2,0.147923231,2.651813269,-80.49184971,36.32160835,9920
1,-30,1,1,0,1,PERTURBATION,0,ROTATION,0.392888069,-135,-122.7792695,12.22073047,70,271,msl000399,v2,0.40171504,2.953531027,-26.98455734,35.32075043,9985
1,-30,1,1,0,1,PERTURBATION,0,ROTATION,0.411190987,-45,-7.219637695,37.7803623,70,272,msl000399,v2,0.210421324,2.178248405,66.01801643,31.65093803,10054
1,-30,1,1,0,1,PERTURBATION,0,ROTATION,0.397341967,0,34.70720272,34.70720272,70,273,msl000399,v2,0.106166124,1.777969122,107.848633,28.64836426,10126
1,-30,1,1,0,1,PERTURBATION,0,ROTATION,0.487530947,180,-158.1233118,21.87668824,70,274,msl000399,v2,0.244858503,2.556734562,-66.14621944,30.98369942,10126
1,-30,1,1,0,1,PERTURBATION,0,ROTATION,0.548365831,-135,-106.9910442,28.00895585,70,275,msl000399,v2,0.232099533,2.29597044,-20.47898083,21.30873947,10205
1,-30,1,1,0,1,PERTURBATION,0,ROTATION,0.562735796,45,70.80805255,25.80805255,70,276,msl000399,v2,0.471997499,3.359748602,146.1762468,37.9897049,10268
1,-30,1,1,0,1,PERTURBATION,0,ROTATION,0.432904959,90,118.6013459,28.6013459,70,277,msl000399,v2,0.575989485,3.695892572,-173.9948524,43.99485245,10325
1,-30,1,1,0,1,PERTURBATION,0,ROTATION,0.514463902,-90,-67.27766939,22.72233061,70,278,msl000399,v2,0.261156082,2.141078949,19.34991989,36.98884697,10389
1,-30,1,1,0,1,PERTURBATION,0,ROTATION,0.427825928,-45,-26.00063788,18.99936212,70,279,msl000399,v2,0.283031464,1.786921501,53.84091167,36.98884697,10453
1,-30,1,1,0,1,PERTURBATION,0,ROTATION,0.588546038,135,159.3833403,24.38334029,70,280,msl000399,v2,0.274829149,1.938774109,-120.8211794,27.31388702,10526
1,-30,1,1,0,1,PERTURBATION,0,ROTATION,0.481623888,135,175.2311647,40.23116472,70,281,msl000399,v2,0.824478626,3.400316477,-128.8280428,39.32418213,10587
1,-30,1,1,0,1,PERTURBATION,0,ROTATION,0.547414064,-45,-15.32297244,29.67702756,70,282,msl000399,v2,0.415188074,2.343067884,51.83919582,21.97597809,10666
1,-30,1,1,0,1,PERTURBATION,0,ROTATION,0.516468048,0,7.632633727,7.632633727,70,283,msl000399,v2,0.764612913,4.972440004,101.1762468,34.3198925,10666
1,-30,1,1,0,1,PERTURBATION,0,ROTATION,0.476495028,90,128.4940337,38.4940337,70,284,msl000399,v2,0.223086357,2.318966389,-174.1616621,34.98713112,10732
1,-30,1,1,0,1,PERTURBATION,0,ROTATION,0.601752043,-90,-69.39197668,20.60802332,70,285,msl000399,v2,0.427731514,2.515577555,9.341340637,34.3198925,10798
1,-30,1,1,0,1,PERTURBATION,0,ROTATION,0.374479055,45,84.44479843,39.44479843,70,286,msl000399,v2,0.323555231,2.987339258,144.5081503,37.32246628,10861
1,-30,1,1,0,1,PERTURBATION,0,ROTATION,0.408766985,-135,-115.0539409,19.94605907,70,287,msl000399,v2,0.294649601,2.03049159,-36.65951729,29.31560287,10932
1,-30,1,1,0,1,PERTURBATION,0,ROTATION,0.467751026,180,-159.6076638,20.39233621,70,288,msl000399,v2,0.350902081,2.886713982,-87.66466484,44.99571037,10932
1,-30,1,1,0,1,PERTURBATION,0,ROTATION,0.578752995,90,114.9908843,24.99088429,70,289,msl000399,v2,0.246948481,3.502784491,-168.3233242,53.33619308,10979
1,-30,1,1,0,1,PERTURBATION,0,ROTATION,0.399319172,0,23.14374955,23.14374955,70,290,msl000399,v2,0.245911598,1.701844454,98.0068634,41.9931366,11038
1,-30,1,1,0,1,PERTURBATION,0,ROTATION,0.343588829,-45,-7.824853488,37.17514651,70,291,msl000399,v2,0.280014753,2.039869785,62.18139439,37.32246628,11101
1,-30,1,1,0,1,PERTURBATION,0,ROTATION,0.448233128,-135,-111.0047363,23.99526373,70,292,msl000399,v2,0.234815598,2.802613497,-31.32160835,42.99399452,11159
1,-30,1,1,0,1,PERTURBATION,0,ROTATION,0.381321907,45,74.02202329,29.02202329,70,293,msl000399,v2,0.567260027,4.063105106,147.6775337,42.99399452,11217
1,-30,1,1,0,1,PERTURBATION,0,ROTATION,0.412423134,180,-147.7082801,32.29171986,70,294,msl000399,v2,0.451919556,4.323771477,-80.99227867,50,11217
1,-30,1,1,0,1,PERTURBATION,0,ROTATION,0.456893921,-90,-68.13021162,21.86978838,70,295,msl000399,v2,0.308381081,2.508256912,13.34477234,38.99056282,11279
1,-30,1,1,0,1,PERTURBATION,0,ROTATION,0.406774044,135,164.136382,29.13638195,70,296,msl000399,v2,0.232856035,3.376708984,-118.1522249,44.66209106,11335
1,-30,1,1,0,1,PERTURBATION,0,ROTATION,0.419135094,45,67.56589054,22.56589054,70,297,msl000399,v2,0.693778515,3.685667515,151.3473461,43.32761383,11392
1,-30,1,1,0,1,PERTURBATION,0,ROTATION,0.372855902,-90,-72.18444917,17.81555083,70,298,msl000399,v2,0.36419487,2.212080717,18.84949093,38.99056282,11454
1,-30,1,1,0,1,PERTURBATION,0,ROTATION,0.471336126,-135,-121.4008436,13.59915637,70,299,msl000399,v2,0.166731119,2.118670225,-28.15222492,32.98541527,11522
1,-30,1,1,0,1,PERTURBATION,0,ROTATION,0.583343983,180,-154.6925493,25.30745074,70,300,msl000399,v2,0.715206623,3.035130501,-67.48069668,37.32246628,11522
1,-30,1,1,0,1,PERTURBATION,0,ROTATION,0.456984997,-45,-18.83942955,26.16057045,70,301,msl000399,v2,0.263106108,2.918963194,60.6801075,24.97855186,11598
1,-30,1,1,0,1,PERTURBATION,0,ROTATION,0.458793879,0,33.82724646,33.82724646,70,302,msl000399,v2,0.233406544,2.313307524,110.0171585,12.63463745,11686
1,-30,1,1,0,1,PERTURBATION,0,ROTATION,0.4370749,135,170.2029205,35.20292048,70,303,msl000399,v2,0.408247709,2.208134651,-127.8271849,13.63549538,11773
1,-30,1,1,0,1,PERTURBATION,0,ROTATION,0.516947031,90,118.3443491,28.34434906,70,304,msl000399,v2,0.46805644,3.083916426,-175.662949,15.63721123,11858
1,-30,1,1,0,1,PERTURBATION,0,ROTATION,0.470872879,180,-153.2196203,26.78037971,70,305,msl000399,v2,0.372619629,2.468555689,-82.99399452,43.99485245,11858
1,-30,1,1,0,1,PERTURBATION,0,ROTATION,0.435456038,-45,-17.29693218,27.70306782,70,306,msl000399,v2,0.552155733,3.960058689,59.84605923,27.98112564,11931
1,-30,1,1,0,1,PERTURBATION,0,ROTATION,0.417430878,135,152.2240866,17.22408658,70,307,msl000399,v2,0.453880787,2.949769974,-128.4944235,33.98627319,11998
1,-30,1,1,0,1,PERTURBATION,0,ROTATION,0.342681885,-135,-110.0383959,24.96160408,70,308,msl000399,v2,0.407091379,2.311009169,-31.1547987,27.64750633,12071
1,-30,1,1,0,1,PERTURBATION,0,ROTATION,0.222142935,0,24.02338345,24.02338345,70,309,msl000399,v2,0.269704342,1.797557354,107.848633,29.98284149,12142
1,-30,1,1,0,1,PERTURBATION,0,ROTATION,0.330337048,90,121.0755146,31.07551464,70,310,msl000399,v2,0.458076954,1.753982067,-174.6620911,29.31560287,12213
1,-30,1,1,0,1,PERTURBATION,0,ROTATION,0.166780949,-90,-69.61347447,20.38652553,70,311,msl000399,v2,0.821209908,4.197125673,19.01630058,36.32160835,12277
1,-30,1,1,0,1,PERTURBATION,0,ROTATION,0.344452858,45,82.3001084,37.3001084,70,312,msl000399,v2,0.553324461,2.105259657,143.8409117,27.31388702,12350
0,0,0,0,0,0,WASHOUT,0,NONE,1.041778088,45,68.40258849,23.40258849,70,313,msl000399,v2,0,0,0,0,12350
0,0,0,0,0,0,WASHOUT,0,NONE,0.398557186,180,-164.8958452,15.10415478,70,314,msl000399,v2,0,0,0,0,12350
0,0,0,0,0,0,WASHOUT,0,NONE,0.497462988,0,37.83801028,37.83801028,70,315,msl000399,v2,0,0,0,0,12350
0,0,0,0,0,0,WASHOUT,0,NONE,1.024527073,-45,-40.38375629,4.616243709,70,316,msl000399,v2,0,0,0,0,12350
0,0,0,0,0,0,WASHOUT,0,NONE,0.478748798,-90,-76.8356051,13.1643949,70,317,msl000399,v2,0,0,0,0,12350
0,0,0,0,0,0,WASHOUT,0,NONE,0.515322924,135,162.2840251,27.28402512,70,318,msl000399,v2,0,0,0,0,12350
0,0,0,0,0,0,WASHOUT,0,NONE,0.50466013,90,111.9962148,21.99621482,70,319,msl000399,v2,0,0,0,0,12350
0,0,0,0,0,0,WASHOUT,0,NONE,0.449476004,-135,-127.8332461,7.166753853,70,320,msl000399,v2,0,0,0,0,12350
0,0,0,0,0,0,WASHOUT,0,NONE,0.469104052,-135,-125.4524075,9.547592537,70,321,msl000399,v2,0,0,0,0,12350
0,0,0,0,0,0,WASHOUT,0,NONE,0.462677956,-45,-26.76066719,18.23933281,70,322,msl000399,v2,0,0,0,0,12350
0,0,0,0,0,0,WASHOUT,0,NONE,0.378362894,45,47.95291926,2.952919258,70,323,msl000399,v2,0,0,0,0,12350
0,0,0,0,0,0,WASHOUT,0,NONE,0.489780188,180,-174.5776569,5.422343131,70,324,msl000399,v2,0,0,0,0,12350
0,0,0,0,0,0,WASHOUT,0,NONE,0.476167917,-90,-84.51404013,5.485959868,70,325,msl000399,v2,0,0,0,0,12350
0,0,0,0,0,0,WASHOUT,0,NONE,0.461519003,90,106.1600784,16.16007835,70,326,msl000399,v2,0,0,0,0,12350
0,0,0,0,0,0,WASHOUT,0,NONE,0.501101971,135,144.1508837,9.15088369,70,327,msl000399,v2,0,0,0,0,12350
0,0,0,0,0,0,WASHOUT,0,NONE,0.363951921,0,9.764023214,9.764023214,70,328,msl000399,v2,0,0,0,0,12350
0,0,0,0,0,0,WASHOUT,0,NONE,0.426776886,135,154.8254311,19.82543106,70,329,msl000399,v2,0,0,0,0,12350
0,0,0,0,0,0,WASHOUT,0,NONE,0.413671017,45,43.9961962,-1.003803799,70,330,msl000399,v2,0,0,0,0,12350
0,0,0,0,0,0,WASHOUT,0,NONE,0.473757029,-135,-127.5947172,7.405282785,70,331,msl000399,v2,0,0,0,0,12350
0,0,0,0,0,0,WASHOUT,0,NONE,0.170770168,90,104.670422,14.67042203,70,332,msl000399,v2,0,0,0,0,12350
0,0,0,0,0,0,WASHOUT,0,NONE,0.496225834,180,-171.7742337,8.225766346,70,333,msl000399,v2,0,0,0,0,12350
0,0,0,0,0,0,WASHOUT,0,NONE,0.481215,-45,-22.40657785,22.59342215,70,334,msl000399,v2,0,0,0,0,12350
0,0,0,0,0,0,WASHOUT,0,NONE,0.504333019,0,23.91204667,23.91204667,70,335,msl000399,v2,0,0,0,0,12350
0,0,0,0,0,0,WASHOUT,0,NONE,0.37196207,-90,-78.2762618,11.7237382,70,336,msl000399,v2,0,0,0,0,12350
0,0,0,0,0,0,WASHOUT,0,NONE,0.333971977,0,11.65252716,11.65252716,70,337,msl000399,v2,0,0,0,0,12350
0,0,0,0,0,0,WASHOUT,0,NONE,0.431870937,-135,-119.398331,15.60166897,70,338,msl000399,v2,0,0,0,0,12350
0,0,0,0,0,0,WASHOUT,0,NONE,0.348655224,-45,-40.31434026,4.685659743,70,339,msl000399,v2,0,0,0,0,12350
0,0,0,0,0,0,WASHOUT,0,NONE,0.441154003,180,-169.7400997,10.25990028,70,340,msl000399,v2,0,0,0,0,12350
0,0,0,0,0,0,WASHOUT,0,NONE,0.343696833,135,155.2435873,20.24358731,70,341,msl000399,v2,0,0,0,0,12350
0,0,0,0,0,0,WASHOUT,0,NONE,0.151199102,-90,-74.161202,15.838798,70,342,msl000399,v2,0,0,0,0,12350
0,0,0,0,0,0,WASHOUT,0,NONE,0.509305,90,110.9081402,20.9081402,70,343,msl000399,v2,0,0,0,0,12350
0,0,0,0,0,0,WASHOUT,0,NONE,0.37755394,45,59.86324589,14.86324589,70,344,msl000399,v2,0,0,0,0,12350
0,0,0,0,0,0,WASHOUT,0,NONE,0.412163019,0,16.3615255,16.3615255,70,345,msl000399,v2,0,0,0,0,12350
0,0,0,0,0,0,WASHOUT,0,NONE,0.430622101,-90,-76.10386503,13.89613497,70,346,msl000399,v2,0,0,0,0,12350
0,0,0,0,0,0,WASHOUT,0,NONE,0.531189203,90,103.6714665,13.67146649,70,347,msl000399,v2,0,0,0,0,12350
0,0,0,0,0,0,WASHOUT,0,NONE,0.454457998,-135,-123.0098338,11.99016616,70,348,msl000399,v2,0,0,0,0,12350
0,0,0,0,0,0,WASHOUT,0,NONE,0.448001862,-45,-31.72069051,13.27930949,70,349,msl000399,v2,0,0,0,0,12350
0,0,0,0,0,0,WASHOUT,0,NONE,0.378022909,45,46.73816828,1.73816828,70,350,msl000399,v2,0,0,0,0,12350
0,0,0,0,0,0,WASHOUT,0,NONE,0.269779921,135,145.8103418,10.81034178,70,351,msl000399,v2,0,0,0,0,12350
0,0,0,0,0,0,WASHOUT,0,NONE,0.371146917,180,-168.5067641,11.49323594,70,352,msl000399,v2,0,0,0,0,12350
0,0,0,0,0,0,WASHOUT,0,NONE,0.417844057,-135,-126.504836,8.495164003,70,353,msl000399,v2,0,0,0,0,12350
0,0,0,0,0,0,WASHOUT,0,NONE,0.380409956,180,-164.1725179,15.82748211,70,354,msl000399,v2,0,0,0,0,12350
0,0,0,0,0,0,WASHOUT,0,NONE,0.420156956,135,149.750225,14.75022498,70,355,msl000399,v2,0,0,0,0,12350
0,0,0,0,0,0,WASHOUT,0,NONE,0.40576601,-45,-32.62122506,12.37877494,70,356,msl000399,v2,0,0,0,0,12350
0,0,0,0,0,0,WASHOUT,0,NONE,0.328114033,45,52.13131648,7.13131648,70,357,msl000399,v2,0,0,0,0,12350
0,0,0,0,0,0,WASHOUT,0,NONE,0.338232994,0,12.63681964,12.63681964,70,358,msl000399,v2,0,0,0,0,12350
0,0,0,0,0,0,WASHOUT,0,NONE,0.343470812,90,104.3934873,14.39348732,70,359,msl000399,v2,0,0,0,0,12350
0,0,0,0,0,0,WASHOUT,0,NONE,0.360967875,-90,-80.89282282,9.107177184,70,360,msl000399,v2,0,0,0,0,12350
0,0,1,1,0,0,BASELINE,0,NONE,2.357106924,135,140.5811322,5.581132161,70,1,421,v2,0,0,0,0,0
0,0,1,1,0,0,BASELINE,0,NONE,0.699794054,180,170.6502519,-9.349748095,70,2,421,v2,0,0,0,0,0
0,0,1,1,0,0,BASELINE,0,NONE,0.307875872,-90,-95.8501317,-5.850131702,70,3,421,v2,0,0,0,0,0
0,0,1,1,0,0,BASELINE,0,NONE,0.598628044,90,92.52720917,2.527209167,70,4,421,v2,0,0,0,0,0
0,0,1,1,0,0,BASELINE,0,NONE,0.472054958,-135,-141.1483811,-6.148381126,70,5,421,v2,0,0,0,0,0
0,0,1,1,0,0,BASELINE,0,NONE,0.486262083,-45,-39.64797684,5.35202316,70,6,421,v2,0,0,0,0,0
0,0,1,1,0,0,BASELINE,0,NONE,0.157886982,0,-2.09113222,-2.09113222,70,7,421,v2,0,0,0,0,0
0,0,1,1,0,0,BASELINE,0,NONE,0.534072876,45,42.85647197,-2.143528032,70,8,421,v2,0,0,0,0,0
0,0,1,1,0,0,BASELINE,0,NONE,0.518088102,-90,-84.03247999,5.967520009,70,9,421,v2,0,0,0,0,0
0,0,1,1,0,0,BASELINE,0,NONE,0.482228041,90,89.50157594,-0.498424055,70,10,421,v2,0,0,0,0,0
0,0,1,1,0,0,BASELINE,0,NONE,0.4974401,180,179.8547608,-0.145239164,70,11,421,v2,0,0,0,0,0
0,0,1,1,0,0,BASELINE,0,NONE,0.609560013,0,-2.537144313,-2.537144313,70,12,421,v2,0,0,0,0,0
0,0,1,1,0,0,BASELINE,0,NONE,0.558719873,-45,-50.65898067,-5.658980665,70,13,421,v2,0,0,0,0,0
0,0,1,1,0,0,BASELINE,0,NONE,0.584798813,45,43.15002959,-1.849970407,70,14,421,v2,0,0,0,0,0
