is_manipulated,manipulation_angle,online_feedback,endpoint_feedback,was_restarted,is_judged,label,too_slow,manipulation_type,rt,target_angle,reach_angle,diff_angle,target_dist,trial,id,exp_version,judgement_rt,judgement_decision_time,judgement_loc,judgement_width,judgement_score
0,0,1,1,0,0,BASELINE,0,NONE,0.21359395980835,180,175.672296001446,-4.32770399855366,70,1,msl000514,v3,0,0,0,0,0
0,0,1,1,0,0,BASELINE,0,NONE,0.189593076705933,-135,-134.947924277574,0.0520757224259114,70,2,msl000514,v3,0,0,0,0,0
0,0,1,1,0,0,BASELINE,0,NONE,0.0455608367919922,135,142.421113262276,7.42111326227578,70,3,msl000514,v3,0,0,0,0,0
0,0,1,1,0,0,BASELINE,0,NONE,0.140822172164917,45,37.0421594727521,-7.95784052724785,70,4,msl000514,v3,0,0,0,0,0
0,0,1,1,0,0,BASELINE,0,NONE,0.148822069168091,-45,-35.3671357276264,9.63286427237362,70,5,msl000514,v3,0,0,0,0,0
0,0,1,1,0,0,BASELINE,0,NONE,0.0862958431243897,-90,-92.0066431679976,-2.00664316799765,70,6,msl000514,v3,0,0,0,0,0
0,0,1,1,0,0,BASELINE,0,NONE,0.390646934509277,0,1.91897510303815,1.91897510303815,70,7,msl000514,v3,0,0,0,0,0
0,0,1,1,0,0,BASELINE,0,NONE,0.105756044387817,90,93.3136590457998,3.31365904579984,70,8,msl000514,v3,0,0,0,0,0
0,0,1,1,0,0,BASELINE,0,NONE,0.0783729553222656,0,-0.146854392942735,-0.146854392942735,70,9,msl000514,v3,0,0,0,0,0
0,0,1,1,0,0,BASELINE,0,NONE,0.19709300994873,-45,-42.1511681134412,2.84883188655876,70,10,msl000514,v3,0,0,0,0,0
0,0,1,1,0,0,BASELINE,0,NONE,0.0901999473571777,135,133.446805692911,-1.55319430708948,70,11,msl000514,v3,0,0,0,0,0
0,0,1,1,0,0,BASELINE,0,NONE,0.224972009658813,-135,-140.733314517753,-5.73331451775283,70,12,msl000514,v3,0,0,0,0,0
0,0,1,1,0,0,BASELINE,0,NONE,1.26600289344788,90,92.7260970552404,2.72609705524039,70,13,msl000514,v3,0,0,0,0,0
0,0,1,1,0,0,BASELINE,0,NONE,0.638339996337891,180,-173.57923907073,6.4207609292697,70,14,msl000514,v3,0,0,0,0,0
0,0,1,1,0,0,BASELINE,0,NONE,0.685774087905884,45,45.6549052852588,0.654905285258785,70,15,msl000514,v3,0,0,0,0,0
0,0,1,1,0,0,BASELINE,0,NONE,0.6458420753479,-90,-92.8603175895873,-2.86031758958728,70,16,msl000514,v3,0,0,0,0,0
0,0,1,1,0,1,BASELINE_AIM,0,NONE,0.960912942886353,45,44.4337914866321,-0.566208513367847,70,17,msl000514,v3,2.29937434196472,3.85143327713013,135,50,50
0,0,1,1,0,1,BASELINE_AIM,0,NONE,0.613646984100342,-90,-92.8569270589804,-2.85692705898038,70,18,msl000514,v3,1.55190539360046,2.47990441322327,0,50,100
0,0,1,1,0,1,BASELINE_AIM,0,NONE,0.171313047409058,-135,-145.175939931277,-10.175939931277,70,19,msl000514,v3,0.907332420349121,2.29932761192322,-45,39.3239868164062,161
0,0,1,1,0,1,BASELINE_AIM,0,NONE,0.469263792037964,90,89.8609826323247,-0.13901736767528,70,20,msl000514,v3,0.692244291305542,2.74027323722839,-180,34.6532310485839,227
0,0,1,1,0,1,BASELINE_AIM,0,NONE,0.441133975982666,0,1.13633236396817,1.13633236396817,70,21,msl000514,v3,1.08909106254578,3.42508387565613,90,29.9824752807616,298
0,0,1,1,0,1,BASELINE_AIM,0,NONE,0.455619096755981,180,-178.980473444619,1.01952655538105,70,22,msl000514,v3,2.3866982460022,3.69866228103638,-90,20.6409637451171,298
0,0,1,1,0,1,BASELINE_AIM,0,NONE,0.777277946472168,-45,-55.0530092592917,-10.0530092592917,70,23,msl000514,v3,1.20892691612244,4.49694776535034,45,23.9772178649901,375
0,0,1,1,0,1,BASELINE_AIM,0,NONE,0.265640020370483,135,140.655173155442,5.65517315544182,70,24,msl000514,v3,0.902889013290405,2.45492506027222,-135,20.9745891571044,455
0,0,1,1,0,1,BASELINE_AIM,0,NONE,0.313469886779785,45,42.1166777580232,-2.88332224197683,70,25,msl000514,v3,0.876290321350098,2.34823322296143,135,11.9667030334471,544
0,0,1,1,0,1,BASELINE_AIM,0,NONE,0.174426078796387,90,92.5821484916395,2.58214849163953,70,26,msl000514,v3,1.43462085723877,4.75460076332092,-180,1,544
0,0,1,1,0,1,BASELINE_AIM,0,NONE,0.7515709400177,-90,-94.8448731501264,-4.84487315012638,70,27,msl000514,v3,1.30289936065674,1.37485933303833,0,50,594
0,0,1,1,0,1,BASELINE_AIM,0,NONE,0.410689115524292,-45,-45.4612646674872,-0.461264667487221,70,28,msl000514,v3,0.669731140136719,2.22968125343323,45,7.96319808959948,687
0,0,1,1,0,1,BASELINE_AIM,0,NONE,0.258875846862793,135,135.139802550821,0.139802550820633,70,29,msl000514,v3,0.566248655319214,1.96619153022766,-135,9.29769973754869,778
0,0,1,1,0,1,BASELINE_AIM,0,NONE,0.520482778549194,0,0.834326953067714,0.834326953067714,70,30,msl000514,v3,0.669652462005615,2.03764033317566,90,12.967579269409,866
0,0,1,1,0,1,BASELINE_AIM,0,NONE,0.137321949005127,180,176.263249361062,-3.73675063893768,70,31,msl000514,v3,0.299256563186646,2.09917044639587,-90,17.6383350372313,949
0,0,1,1,0,1,BASELINE_AIM,0,NONE,0.155943155288696,-135,-144.576148637657,-9.57614863765718,70,32,msl000514,v3,0.321000576019287,2.15307354927063,-45,14.3020809173583,1035
1,-60,1,1,0,1,PERTURBATION,0,ROTATION,0.34837818145752,90,89.5039576746698,-0.496042325330251,70,33,msl000514,v3,0.34534764289856,1.76125764846802,-180,7.62957267761217,1035
1,-60,1,1,0,1,PERTURBATION,0,ROTATION,0.592458963394165,-90,-46.8216421084061,43.1783578915939,70,34,msl000514,v3,13.1907091140747,18.8306860923767,36.8656080245972,77.0236583709715,1058
1,-60,1,1,0,1,PERTURBATION,0,ROTATION,0.27081298828125,-135,-73.8976794361739,61.1023205638261,70,35,msl000514,v3,0.859555244445801,6.55566620826721,5.04381179809558,71.0184009552001,1087
1,-60,1,1,0,1,PERTURBATION,0,ROTATION,0.201937913894653,45,92.4902475648234,47.4902475648234,70,36,msl000514,v3,5.7913818359375,11.5194456577301,183.375684738163,59.3415115356446,1128
1,-60,1,1,0,1,PERTURBATION,0,ROTATION,0.602821111679077,0,65.3202424070597,65.3202424070597,70,37,msl000514,v3,1.08841180801392,6.62451863288879,151.387075805665,50,1178
1,-60,1,1,0,1,PERTURBATION,0,ROTATION,0.390302181243897,135,-161.095526832054,63.904473167946,70,38,msl000514,v3,3.7350127696991,8.1430447101593,-74.9474258422856,50,1178
1,-60,1,1,0,1,PERTURBATION,0,ROTATION,0.148221969604492,180,-174.107957567858,5.89204243214215,70,39,msl000514,v3,0.6576828956604,4.2977397441864,-35.7858705520639,50,1178
1,-60,1,1,0,1,PERTURBATION,0,ROTATION,0.532755136489868,-45,-46.8240259442543,-1.82402594425428,70,40,msl000514,v3,1.25818657875061,8.06620669364929,-131.321030235289,50,1178
1,45,1,1,0,1,PERTURBATION,0,ROTATION,0.824522972106934,-135,-131.519396934956,3.48060306504439,70,41,msl000514,v3,1.78751182556152,4.84343481063843,-45,100,1178
1,45,1,1,0,1,PERTURBATION,0,ROTATION,0.178605079650879,-90,-136.534014302754,-46.5340143027543,70,42,msl000514,v3,2.63596534729004,6.41992545127869,-42.5372400283813,60.3423877716065,1218
1,45,1,1,0,1,PERTURBATION,0,ROTATION,0.200911045074463,0,2.61473162194483,2.61473162194483,70,43,msl000514,v3,1.30627489089966,3.55426692962647,90,98.709310150146,1220
1,45,1,1,0,1,PERTURBATION,0,ROTATION,0.388924121856689,90,152.263265944255,62.2632659442551,70,44,msl000514,v3,0.795075416564941,5.29113936424255,-119.780613136288,60.6760131835938,1220
1,45,1,1,0,1,PERTURBATION,0,ROTATION,0.361166000366211,180,174.11179176534,-5.88820823465974,70,45,msl000514,v3,1.05277228355408,5.71674823760986,-149.885761451722,67.0148960113526,1220
1,45,1,1,0,1,PERTURBATION,0,ROTATION,0.342459917068481,45,37.4106793584986,-7.58932064150136,70,46,msl000514,v3,7.36704635620117,13.3671002388001,134.666374588013,100,1220
1,45,1,1,0,1,PERTURBATION,0,ROTATION,1.99114513397217,-45,-45.0488789534877,-0.0488789534876446,70,47,msl000514,v3,4.94570899009705,10.4497680664063,88.7049289703362,50,1220
1,45,1,1,0,1,PERTURBATION,0,ROTATION,0.318136930465698,135,132.557211916806,-2.44278808319359,70,48,msl000514,v3,0.506106376647949,4.6500883102417,-134.165936470032,92.3704273223873,1228
1,-30,1,1,0,1,PERTURBATION,0,ROTATION,0.240943908691406,-45,-37.7088836276272,7.29111637237277,70,49,msl000514,v3,3.6598048210144,16.7239987850189,81.5319826126092,88.0332969665524,1240
1,-30,1,1,0,1,PERTURBATION,0,ROTATION,0.87158203125,135,-176.006660952315,48.9933390476853,70,50,msl000514,v3,1.72382664680481,6.69186353683472,-87.9588169097903,76.3564075469969,1240
1,-30,1,1,0,1,PERTURBATION,0,ROTATION,0.381979942321777,-90,-79.8824092344878,10.1175907655122,70,51,msl000514,v3,0.3771812915802,6.68917727470398,-2.60902410786912E-15,100,1240
1,-30,1,1,0,1,PERTURBATION,0,ROTATION,0.501791000366211,180,179.484373199564,-0.515626800436252,70,52,msl000514,v3,2.06303429603577,6.29506134986877,-109.517086601257,71.0184009552001,1269
1,-30,1,1,0,1,PERTURBATION,0,ROTATION,0.619686841964722,-135,-171.734748047331,-36.7347480473312,70,53,msl000514,v3,1.08791017532349,5.73593807220459,-74.1922235488887,80.6935379028318,1269
1,-30,1,1,0,1,PERTURBATION,0,ROTATION,0.185966014862061,90,35.849368870654,-54.150631129346,70,54,msl000514,v3,1.78634715080261,5.44232702255249,-217.366046142581,76.6900329589842,1269
1,-30,1,1,0,1,PERTURBATION,0,ROTATION,0.211444139480591,0,47.2099631655616,47.2099631655616,70,55,msl000514,v3,0.333296775817871,4.13328266143799,132.704052734375,74.0210296630858,1295
1,-30,1,1,0,1,PERTURBATION,0,ROTATION,0.229806900024414,45,68.047445984447,23.047445984447,70,56,msl000514,v3,1.56385946273804,5.06788039207459,157.519715309145,84.3634174346921,1311
1,0,1,1,0,1,PERTURBATION,0,ROTATION,0.174914121627808,0,36.8318608855801,36.8318608855801,70,57,msl000514,v3,0.743421077728272,4.54346013069153,113.520591545105,66.347645187378,1311
1,0,1,1,0,1,PERTURBATION,0,ROTATION,0.756033897399902,-45,-53.5353132002209,-8.53531320022088,70,58,msl000514,v3,0.693927049636841,26.5662550926209,29.9868564605715,59.6751369476319,1352
1,0,1,1,0,1,PERTURBATION,0,ROTATION,0.782515048980713,90,84.6865266402805,-5.31347335971955,70,59,msl000514,v3,1.8017418384552,7.10579085350037,-179.499561882019,100,1352
1,0,1,1,0,1,PERTURBATION,0,ROTATION,0.0920450687408447,-135,-145.089110331965,-10.0891103319645,70,60,msl000514,v3,0.832547426223755,2.21658635139465,-45,84.6970428466794,1368
1,15,1,1,0,1,PERTURBATION,0,ROTATION,0.16578197479248,45,38.0128210990194,-6.98717890098063,70,61,msl000514,v3,0.824467897415161,2.00045704841614,135,60.3423877716065,1408
1,15,1,1,0,1,PERTURBATION,0,ROTATION,0.432761907577515,-90,-78.4150189588713,11.5849810411287,70,62,msl000514,v3,0.544808149337769,2.2248260974884,0,50,1458
1,15,1,1,0,1,PERTURBATION,0,ROTATION,0.182659149169922,135,158.079923084559,23.0799230845591,70,63,msl000514,v3,5.34017395973206,9.63614511489868,-114.982475280762,73.0201534271239,1458
1,15,1,1,0,1,PERTURBATION,0,ROTATION,0.291453123092651,180,156.789501395446,-23.2104986045539,70,64,msl000514,v3,1.54113578796387,5.10911774635315,-111.685651779174,60.6760131835938,1498
1,15,1,1,0,1,PERTURBATION,0,ROTATION,0.262686967849731,135,131.491002858543,-3.50899714145683,70,65,msl000514,v3,0.35021185874939,3.95019388198853,-135,93.0376781463619,1505
1,15,1,1,0,1,PERTURBATION,0,ROTATION,0.113831043243408,90,87.6092233923391,-2.39077660766095,70,66,msl000514,v3,0.422274112701416,1.72622108459473,-180,73.3537788391112,1532
1,15,1,1,0,1,PERTURBATION,0,ROTATION,1.13315510749817,180,-167.669325733709,12.3306742662915,70,67,msl000514,v3,0.251456499099731,3.1154375076294,-74.4864183425906,75.355531311035,1532
1,15,1,1,0,1,PERTURBATION,0,ROTATION,0.142452001571655,-90,-104.712770968201,-14.7127709682009,70,68,msl000514,v3,0.561259508132935,3.44919729232788,-9.50832424163819,61.6768894195557,1571
1,-45,1,1,0,1,PERTURBATION,0,ROTATION,0.603770017623901,-135,-151.690688722722,-16.6906887227217,70,69,msl000514,v3,0.238263368606567,1.8462724685669,-56.1764513015745,59.0078861236573,1571
1,-45,1,1,0,1,PERTURBATION,0,ROTATION,0.232771873474121,0,32.165440936549,32.165440936549,70,70,msl000514,v3,1.13997173309326,5.04397368431091,125.364293670654,64.6795181274415,1607
1,-45,1,1,0,1,PERTURBATION,0,ROTATION,0.469071865081787,-45,-15.0661282488797,29.9338717511203,70,71,msl000514,v3,0.400660037994385,3.02463293075562,79.6970428466791,61.0096385955811,1646
1,-45,1,1,0,1,PERTURBATION,0,ROTATION,0.219506025314331,45,66.9445546623102,21.9445546623102,70,72,msl000514,v3,0.554343700408936,3.15432572364807,162.190471076967,62.6777656555176,1684
1,-45,1,1,0,1,PERTURBATION,0,ROTATION,0.309847116470337,90,139.861713975617,49.861713975617,70,73,msl000514,v3,0.58383584022522,6.48789978027344,-138.964074325559,63.6786418914796,1721
1,-45,1,1,0,1,PERTURBATION,0,ROTATION,0.0873620510101318,180,143.572222535934,-36.4277774640658,70,74,msl000514,v3,0.25853705406189,5.63454604148865,-118.524972724914,64.0122673034669,1721
1,-45,1,1,0,1,PERTURBATION,0,ROTATION,0.570302963256836,135,-172.287654792341,52.7123452076595,70,75,msl000514,v3,0.200924634933472,3.48894953727722,-91.2950710296633,64.6795181274415,1721
1,-45,1,1,0,1,PERTURBATION,0,ROTATION,0.307416200637817,-135,-148.575717070091,-13.5757170700911,70,76,msl000514,v3,0.529514074325562,3.25760912895203,-70.5223440170284,58.3406352996827,1721
1,60,1,1,0,1,PERTURBATION,0,ROTATION,0.228868961334229,-90,-42.4431105290169,47.5568894709831,70,77,msl000514,v3,1.41175222396851,5.69975733757019,43.7049289703368,54.337130355835,1721
1,60,1,1,0,1,PERTURBATION,0,ROTATION,0.156599998474121,-45,-90.1561387131217,-45.1561387131217,70,78,msl000514,v3,0.298555374145508,2.3946123123169,0.461007499694947,63.3450164794922,1758
1,60,1,1,0,1,PERTURBATION,0,ROTATION,0.225716829299927,0,-54.5435239848364,-54.5435239848364,70,79,msl000514,v3,0.490923643112183,2.84301161766052,46.4618837356575,64.6795181274415,1794
1,60,1,1,0,1,PERTURBATION,0,ROTATION,0.363133192062378,45,-9.77303246216734,-54.7730324621673,70,80,msl000514,v3,0.837709426879883,3.80571126937866,90.461007499695,60.6760131835938,1834
1,60,1,1,0,1,PERTURBATION,0,ROTATION,0.71092700958252,-135,-173.801539145461,-38.8015391454613,70,81,msl000514,v3,2.68844819068909,4.55252027511597,-81.6987953186029,62.010514831543,1872
1,60,1,1,0,1,PERTURBATION,1,ROTATION,,180,-60.9563214884121,119.043678511588,70,82,msl000514,v3,0.0735068321228027,2.18552184104919,-136.707557678223,61.6768894195557,1872
1,60,1,1,0,1,PERTURBATION,0,ROTATION,0.925445079803467,-45,-51.4480585597314,-6.44805855973136,70,83,msl000514,v3,2.81918168067932,4.7711386680603,45,100,1872
1,60,1,1,0,1,PERTURBATION,0,ROTATION,0.156399011611938,0,-37.4223317325158,-37.4223317325158,70,84,msl000514,v3,0.918776035308838,3.97477316856384,47.9631980896003,59.3415115356446,1913
1,-15,1,1,0,1,PERTURBATION,0,ROTATION,0.23305606842041,-90,-141.936601497571,-51.9366014975715,70,85,msl000514,v3,1.79100155830383,5.93508839607239,-45.7066814422606,64.6795181274415,1913
1,-15,1,1,0,1,PERTURBATION,0,ROTATION,0.283524990081787,90,47.8343947067817,-42.1656052932183,70,86,msl000514,v3,3.68409872055054,6.28409171104431,-226.87437038422,62.6777656555176,1913
1,-15,1,1,0,1,PERTURBATION,0,ROTATION,0.436928987503052,45,41.6287656138984,-3.37123438610161,70,87,msl000514,v3,0.454696655273438,1.1426637172699,135,59.6751369476319,1954
1,-15,1,1,0,1,PERTURBATION,0,ROTATION,0.201930046081543,135,146.142521494583,11.142521494583,70,88,msl000514,v3,3.31650114059448,4.90846610069275,-135,64.6795181274415,1990
1,-15,1,1,0,1,PERTURBATION,0,ROTATION,0.449918985366821,0,3.96551456605673,3.96551456605673,70,89,msl000514,v3,0.526763677597046,2.39075064659119,90,49.6663745880127,2041
1,-15,1,1,0,1,PERTURBATION,0,ROTATION,0.262182950973511,-135,-135.10732677725,-0.10732677725008,70,90,msl000514,v3,1.97005558013916,3.57006454467773,-45,50,2091
1,-15,1,1,0,1,PERTURBATION,0,ROTATION,0.250385999679565,-45,-49.9713090902747,-4.9713090902747,70,91,msl000514,v3,0.328061580657959,1.43206858634949,45,50,2141
1,-15,1,1,0,1,PERTURBATION,1,ROTATION,,90,,,70,92,msl000514,v3,0.431577205657959,2.63959240913391,-180,50,2141
1,0,1,1,0,1,PERTURBATION,0,ROTATION,0.911547899246216,45,38.5952877188941,-6.40471228110588,70,93,msl000514,v3,0.656963586807251,2.48095345497131,135,99.0429355621333,2142
1,0,1,1,0,1,PERTURBATION,0,ROTATION,0.731548070907593,180,-178.559460035315,1.44053996468494,70,94,msl000514,v3,0.611976623535156,2.87598848342896,-90,50.3336254119873,2142
1,0,1,1,0,1,PERTURBATION,0,ROTATION,0.594543933868408,135,137.393012603556,2.39301260355626,70,95,msl000514,v3,0.671607732772827,2.27960872650147,-135,41.9929901123047,2201
1,0,1,1,0,1,PERTURBATION,0,ROTATION,0.259737014770508,-90,-88.6779731925953,1.32202680740473,70,96,msl000514,v3,0.475521087646484,1.70746302604675,0,40.9921138763427,2261
1,30,1,1,0,1,PERTURBATION,0,ROTATION,0.863513946533203,135,135.408501940381,0.408501940381427,70,97,msl000514,v3,0.529882669448853,1.84194779396057,-135,34.6532310485839,2261
1,30,1,1,0,1,PERTURBATION,0,ROTATION,0.44351601600647,-135,-168.379361787608,-33.3793617876079,70,98,msl000514,v3,1.29657459259033,6.6085376739502,-67.352902603149,59.6751369476319,2302
1,30,1,1,0,1,PERTURBATION,0,ROTATION,0.293624877929688,180,151.991685542711,-28.0083144572888,70,99,msl000514,v3,0.440877914428711,3.82491207122803,-111.852464485168,44.9956188201904,2358
1,30,1,1,0,1,PERTURBATION,0,ROTATION,0.405551910400391,45,51.4939618898824,6.49396188988236,70,100,msl000514,v3,1.86632299423218,4.25830793380737,161.022782135012,56.3388828277588,2358
1,30,1,1,0,1,PERTURBATION,0,ROTATION,0.389549016952515,90,84.5861506295925,-5.41384937040751,70,101,msl000514,v3,0.529474973678589,1.6814239025116,-180,59.6751369476319,2399
1,30,1,1,0,1,PERTURBATION,0,ROTATION,0.385782957077026,0,-21.1921263449975,-21.1921263449975,70,102,msl000514,v3,0.585876703262329,3.00983691215515,72.3178531646732,50,2449
1,30,1,1,0,1,PERTURBATION,0,ROTATION,0.296284914016724,-45,-72.0229764889005,-27.0229764889004,70,103,msl000514,v3,0.245985984802246,2.04598999023438,23.8147863388063,50,2499
1,30,1,1,0,1,PERTURBATION,0,ROTATION,0.362092018127441,-90,-122.617576778341,-32.617576778341,70,104,msl000514,v3,0.977410554885864,2.87338042259216,-19.8507120132447,50,2549
1,-60,1,1,0,1,PERTURBATION,0,ROTATION,1.20742011070251,180,154.348380476855,-25.6516195231449,70,105,msl000514,v3,0.260226488113403,2.98026847839356,-111.518839073181,50,2549
1,-60,1,1,0,1,PERTURBATION,0,ROTATION,0.379812002182007,135,123.406051496691,-11.593948503309,70,106,msl000514,v3,1.17057061195374,5.3305196762085,-135,100,2549
1,-60,1,1,0,1,PERTURBATION,0,ROTATION,0.180817127227783,-45,-92.2850115683055,-47.2850115683055,70,107,msl000514,v3,2.6001341342926,4.832111120224,10.9702079772951,63.3450164794922,2549
1,-60,1,1,0,1,PERTURBATION,0,ROTATION,0.261217832565308,-135,-145.395825695443,-10.395825695443,70,108,msl000514,v3,1.12025260925293,2.74418258666992,-62.3485214233396,50,2549
1,-60,1,1,0,1,PERTURBATION,0,ROTATION,0.467989921569824,90,154.487157976955,64.4871579769552,70,109,msl000514,v3,0.666454076766968,5.17848205566406,-133.459255027768,57.3397590637207,2592
1,-60,1,1,0,1,PERTURBATION,0,ROTATION,0.533531904220581,0,48.7572395569908,48.7572395569908,70,110,msl000514,v3,0.281926870346069,3.84994387626648,137.875246620178,50,2642
1,-60,1,1,0,1,PERTURBATION,0,ROTATION,0.805533885955811,45,98.0135832552443,53.0135832552443,70,111,msl000514,v3,0.472748994827271,5.65673398971558,179.872617912296,50,2692
1,-60,1,1,0,1,PERTURBATION,0,ROTATION,0.209211111068726,-90,-45.8564204935164,44.1435795064836,70,112,msl000514,v3,1.87749814987183,4.85353016853333,45.039430618286,61.6768894195557,2731
1,45,1,1,0,1,PERTURBATION,0,ROTATION,0.544362783432007,0,39.7309858546971,39.7309858546971,70,113,msl000514,v3,0.441904544830322,2.43388748168945,129.534611320495,63.3450164794922,2731
1,45,1,1,0,1,PERTURBATION,0,ROTATION,0.509244918823242,90,85.2717379278511,-4.72826207214888,70,114,msl000514,v3,0.860414743423462,7.57241058349609,-180,100,2731
1,45,1,1,0,1,PERTURBATION,0,ROTATION,2.42367911338806,-135,-95.8282458072343,39.1717541927657,70,115,msl000514,v3,0.57197904586792,15.9000799655914,-4.79813785552991,65.3467689514161,2731
1,45,1,1,0,1,PERTURBATION,0,ROTATION,0.315203189849854,45,28.1875144967384,-16.8124855032616,70,116,msl000514,v3,1.3964569568634,17.8446049690247,136.167688941956,100,2731
1,45,1,1,0,1,PERTURBATION,0,ROTATION,0.154144048690796,-90,-68.0260944488073,21.9739055511927,70,117,msl000514,v3,2.95054793357849,4.9265079498291,24.021029663086,65.0131435394288,2731
1,45,1,1,0,1,PERTURBATION,0,ROTATION,0.112504005432129,180,149.39839637113,-30.6016036288701,70,118,msl000514,v3,1.89635825157166,4.44836926460266,-124.530230140685,72.3529026031493,2759
1,45,1,1,0,1,PERTURBATION,0,ROTATION,0.213142871856689,-45,-81.8372551525856,-36.8372551525855,70,119,msl000514,v3,4.0585765838623,5.71453952789307,12.1378969192506,62.3441402435303,2797
1,45,1,1,0,1,PERTURBATION,0,ROTATION,0.163743019104004,135,89.7458390872213,-45.2541609127787,70,120,msl000514,v3,1.16142678260803,3.61749362945557,-176.536363792422,61.3432640075684,2836
1,-30,1,1,0,1,PERTURBATION,0,ROTATION,0.262329816818237,180,135.055703408895,-44.944296591105,70,121,msl000514,v3,0.545473337173462,2.91337132453919,-131.869989204406,58.3406352996827,2836
1,-30,1,1,0,1,PERTURBATION,0,ROTATION,0.171676874160767,-90,-123.121284835727,-33.121284835727,70,122,msl000514,v3,3.68297815322876,6.09898710250855,-34.8638555526734,54.0035049438477,2836
1,-30,1,1,0,1,PERTURBATION,0,ROTATION,0.278922080993652,45,82.3198821066302,37.3198821066302,70,123,msl000514,v3,0.484423398971558,2.94843149185181,170.030668258669,63.6786418914796,2873
1,-30,1,1,0,1,PERTURBATION,0,ROTATION,0.905324935913086,-45,-75.0664855287356,-30.0664855287356,70,124,msl000514,v3,0.543443441390991,3.65546631813049,6.13263950347912,61.6768894195557,2873
1,-30,1,1,0,1,PERTURBATION,0,ROTATION,0.94108510017395,90,96.0256574465661,6.02565744656609,70,125,msl000514,v3,1.6214497089386,3.36539483070374,-180,100,2873
1,-30,1,1,0,1,PERTURBATION,0,ROTATION,0.108604907989502,-135,-100.440264295541,34.559735704459,70,126,msl000514,v3,2.18925309181213,4.25323700904846,-20.3117195129396,62.3441402435303,2911
1,-30,1,1,0,1,PERTURBATION,1,ROTATION,,135,12.5977352858103,-122.40226471419,70,127,msl000514,v3,1.16108870506287,3.96904969215393,-106.475027275085,66.347645187378,2911
1,-30,1,1,0,1,PERTURBATION,0,ROTATION,0.144944190979004,0,-37.2407433022034,-37.2407433022034,70,128,msl000514,v3,0.662016868591309,2.83802676200867,60.3073383331304,50,2911
1,0,1,1,0,1,PERTURBATION,0,ROTATION,0.068619966506958,-135,-100.108543694359,34.8914563056408,70,129,msl000514,v3,3.27212810516357,7.160236120224,-18.4767797470094,63.6786418914796,2911
1,0,1,1,0,1,PERTURBATION,0,ROTATION,0.111777067184448,90,91.2333695523809,1.23336955238088,70,130,msl000514,v3,0.509103298187256,1.59708023071289,-180,75.355531311035,2936
1,0,1,1,0,1,PERTURBATION,0,ROTATION,0.175412178039551,-90,-90.9444371617619,-0.944437161761883,70,131,msl000514,v3,0.490233898162842,1.38625407218933,0,56.3388828277588,2980
1,0,1,1,0,1,PERTURBATION,0,ROTATION,0.193849802017212,0,5.98874291323166,5.98874291323166,70,132,msl000514,v3,0.369099140167236,1.32908010482788,90,55.6716320037842,3025
1,15,1,1,0,1,PERTURBATION,0,ROTATION,0.234720945358276,-45,-43.5574847173563,1.44251528264373,70,133,msl000514,v3,0.366190671920776,2.63019156455994,45,38.9903614044189,3087
1,15,1,1,0,1,PERTURBATION,0,ROTATION,0.134907960891724,135,133.99819605347,-1.00180394653046,70,134,msl000514,v3,0.363558053970337,1.1875262260437,-135,37.6558597564697,3150
1,15,1,1,0,1,PERTURBATION,0,ROTATION,0.0748400688171387,180,179.867010553897,-0.132989446103238,70,135,msl000514,v3,0.379349231719971,1.23539137840271,-90,28.3143482208251,3222
1,15,1,1,0,1,PERTURBATION,0,ROTATION,0.600960969924927,45,38.0097294588061,-6.99027054119384,70,136,msl000514,v3,0.608473062515259,1.77647185325623,135,31.3169769287109,3291
1,15,1,1,0,1,PERTURBATION,0,ROTATION,0.196257829666138,-45,-55.3397511842281,-10.339751184228,70,137,msl000514,v3,0.804744005203247,1.58078408241272,45,34.9868564605712,3357
1,15,1,1,0,1,PERTURBATION,0,ROTATION,0.189545869827271,0,-11.0170565169345,-11.0170565169345,70,138,msl000514,v3,0.240161418914795,1.16815543174744,90,28.3143482208251,3429
1,15,1,1,0,1,PERTURBATION,0,ROTATION,0.0817391872406006,90,86.7631515160828,-3.23684848391726,70,139,msl000514,v3,0.260575294494629,0.876571178436279,-180,37.6558597564697,3492
1,15,1,1,0,1,PERTURBATION,0,ROTATION,0.525315046310425,-90,-94.1964964584392,-4.19649645843924,70,140,msl000514,v3,0.237047433853149,1.07705926895142,0,29.9824752807616,3563
1,-45,1,1,0,1,PERTURBATION,0,ROTATION,0.494143009185791,45,55.811426182417,10.811426182417,70,141,msl000514,v3,0.24321722984314,1.49129819869995,135,19.3064620971678,3563
1,-45,1,1,0,1,PERTURBATION,0,ROTATION,0.294466018676758,-135,-111.5799162177,23.4200837822998,70,142,msl000514,v3,3.16561579704285,5.14153861999512,-15.807776451111,35.3204818725585,3628
1,-45,1,1,0,1,PERTURBATION,0,ROTATION,0.188074827194214,180,171.185778949258,-8.81422105074245,70,143,msl000514,v3,0.526173114776611,3.68615221977234,-89.6663745880127,98.3756847381587,3628
1,-45,1,1,0,1,PERTURBATION,0,ROTATION,0.169774055480957,135,-174.43090923357,50.5690907664303,70,144,msl000514,v3,0.748173475265503,3.78013348579407,-102.471522331238,63.0113910675049,3628
1,-45,1,1,0,1,PERTURBATION,0,ROTATION,0.22339916229248,180,-143.802242075385,36.1977579246153,70,145,msl000514,v3,2.51250457763672,6.16855359077454,-57.3047096252447,64.6795181274415,3628
1,-45,1,1,0,1,PERTURBATION,0,ROTATION,0.224932909011841,45,72.7286385673066,27.7286385673066,70,146,msl000514,v3,2.45060873031616,5.49861073493958,168.195728492739,60.6760131835938,3668
1,-45,1,1,0,1,PERTURBATION,0,ROTATION,0.0380449295043945,-90,-51.3925231902821,38.6074768097179,70,147,msl000514,v3,2.69993901252747,4.47589898109436,30.1930997848512,60.3423877716065,3708
1,-45,1,1,0,1,PERTURBATION,0,ROTATION,0.942149877548218,90,68.2161443030578,-21.7838556969422,70,148,msl000514,v3,0.653036832809448,4.05301785469055,-196.681270599366,94.0385543823238,3708
1,60,1,1,0,1,PERTURBATION,0,ROTATION,0.784862995147705,-45,9.54857745643843,54.5485774564384,70,149,msl000514,v3,0.579493761062622,4.51541876792908,103.217634391784,64.0122673034669,3708
1,60,1,1,0,1,PERTURBATION,0,ROTATION,0.893701076507568,0,-41.769021027926,-41.769021027926,70,150,msl000514,v3,0.443465948104858,2.66740489006043,58.138773155213,61.0096385955811,3747
1,60,1,1,0,1,PERTURBATION,0,ROTATION,0.17487096786499,135,-162.190873266289,62.809126733711,70,151,msl000514,v3,1.64828944206238,5.15229940414429,-82.2871849060062,64.0122673034669,3747
1,60,1,1,0,1,PERTURBATION,0,ROTATION,0.23488712310791,-135,169.797540938947,-55.2024590610529,70,152,msl000514,v3,0.257066011428833,2.91300916671753,-98.7136913299551,56.6725082397461,3747
1,60,1,1,0,1,PERTURBATION,0,ROTATION,0.805832862854004,-45,-115.684487536187,-70.684487536187,70,153,msl000514,v3,0.0244078636169434,3.24839091300964,-11.0490692138671,52.3353778839111,3795
1,60,1,1,0,1,PERTURBATION,0,ROTATION,0.132097005844116,90,140.886969321944,50.886969321944,70,154,msl000514,v3,0.891293525695801,6.25130343437195,-130.456626319882,59.3415115356446,3795
1,60,1,1,0,1,PERTURBATION,0,ROTATION,1.26748180389404,135,135.464465223411,0.464465223411253,70,155,msl000514,v3,0.429139137268066,2.14111804962158,-135,72.6865280151366,3795
1,60,1,1,0,1,PERTURBATION,0,ROTATION,0.94228196144104,45,0.905080211096833,-44.0949197889032,70,156,msl000514,v3,0.626296520233154,4.69829964637756,88.7928804397585,62.010514831543,3833
1,-15,1,1,0,1,PERTURBATION,0,ROTATION,0.645456790924072,-135,-170.985478838826,-35.9854788388256,70,157,msl000514,v3,1.62310576438904,4.66317796707153,-83.0332969665521,64.6795181274415,3833
1,-15,1,1,0,1,PERTURBATION,0,ROTATION,0.156285047531128,-90,-88.8573255051466,1.1426744948534,70,158,msl000514,v3,0.776248693466187,1.73620867729187,0,61.0096385955811,3872
1,-15,1,1,0,1,PERTURBATION,0,ROTATION,0.0995759963989258,0,2.05583149378581,2.05583149378581,70,159,msl000514,v3,0.278197050094605,2.51021099090576,90,62.6777656555176,3910
1,-15,1,1,0,1,PERTURBATION,0,ROTATION,0.353388071060181,180,177.204189221326,-2.79581077867371,70,160,msl000514,v3,0.327014446258545,1.31095337867737,-90,50,3910
1,-15,1,1,0,1,PERTURBATION,0,ROTATION,0.966385126113892,45,36.0844860301725,-8.91551396982745,70,161,msl000514,v3,0.548889398574829,1.82085132598877,135,50,3960
1,-15,1,1,0,1,PERTURBATION,0,ROTATION,0.158712148666382,135,154.033829985416,19.0338299854162,70,162,msl000514,v3,0.253023862838745,2.15702676773071,-118.985980224609,59.6751369476319,4001
1,-15,1,1,0,1,PERTURBATION,0,ROTATION,0.727044105529785,0,16.7791500962507,16.7791500962507,70,163,msl000514,v3,1.81871247291565,3.88274049758911,112.686528015136,60.3423877716065,4041
1,-15,1,1,0,1,PERTURBATION,0,ROTATION,0.0592138767242432,-90,-93.5558285715818,-3.55582857158176,70,164,msl000514,v3,1.47387290000916,3.02593779563904,-16.347645187378,66.0140197753907,4075
1,30,1,1,0,1,PERTURBATION,0,ROTATION,0.939648151397705,-135,-144.040708693468,-9.04070869346788,70,165,msl000514,v3,0.110815286636353,1.39876317977905,-63.8498357772824,61.6768894195557,4114
1,30,1,1,0,1,PERTURBATION,0,ROTATION,0.726947069168091,90,85.7234854275242,-4.27651457247579,70,166,msl000514,v3,0.315853834152222,4.05984973907471,-179.833187294006,100,4114
1,30,1,1,0,1,PERTURBATION,0,ROTATION,0.206347942352295,-45,-70.8750098230186,-25.8750098230186,70,167,msl000514,v3,0.368485689163208,1.93653655052185,24.482037162781,58.67426071167,4156
1,30,1,1,0,1,PERTURBATION,0,ROTATION,0.202708959579468,180,-161.958322584239,18.0416774157608,70,168,msl000514,v3,0.735159158706665,2.50326704978943,-71.3169769287113,63.6786418914796,4156
1,30,1,1,0,1,PERTURBATION,0,ROTATION,0.128635883331299,-45,-72.4342603179852,-27.4342603179852,70,169,msl000514,v3,0.0117514133453369,1.53973627090454,19.1440305709841,64.3458927154542,4192
1,30,1,1,0,1,PERTURBATION,0,ROTATION,0.184980154037476,135,107.203283751668,-27.7967162483316,70,170,msl000514,v3,0.243131160736084,2.40317797660828,-158.186966133119,68.683023071289,4224
1,30,1,1,0,1,PERTURBATION,0,ROTATION,0.221328020095825,-135,-152.953073463161,-17.9530734631605,70,171,msl000514,v3,0.202664852142334,1.59463691711426,-71.189594841003,63.6786418914796,4261
1,30,1,1,0,1,PERTURBATION,0,ROTATION,0.306227922439575,90,56.9458563707884,-33.0541436292116,70,172,msl000514,v3,0.463586568832398,1.99158763885498,-206.690032958986,65.0131435394288,4296
1,-60,1,1,0,1,PERTURBATION,0,ROTATION,0.143431901931763,-90,-112.761611925192,-22.761611925192,70,173,msl000514,v3,0.3665931224823,1.54258227348328,-24.3546550750733,61.0096385955811,4296
1,-60,1,1,0,1,PERTURBATION,0,ROTATION,0.17666220664978,45,32.551493186665,-12.448506813335,70,174,msl000514,v3,0.6345374584198,3.29858660697937,104.973712921143,64.3458927154542,4296
1,-60,1,1,0,1,PERTURBATION,0,ROTATION,0.422558069229126,0,2.3746787180909,2.3746787180909,70,175,msl000514,v3,1.29508852958679,3.14311647415161,90,100,4296
1,-60,1,1,0,1,PERTURBATION,1,ROTATION,0.272480010986328,180,119.308667430274,-60.691332569726,70,176,msl000514,v3,2.0374550819397,5.18942427635193,-137.207995796204,61.3432640075684,4296
1,-60,1,1,0,1,PERTURBATION,0,ROTATION,0.0852811336517334,45,-7.1970586870488,-52.1970586870488,70,177,msl000514,v3,0.890902280807495,3.69091844558716,88.7928804397585,66.347645187378,4296
1,-60,1,1,0,1,PERTURBATION,0,ROTATION,0.774855136871338,0,53.634427209223,53.634427209223,70,178,msl000514,v3,0.8538818359375,3.69381403923035,140.377437210083,72.019277191162,4324
1,-60,1,1,0,1,PERTURBATION,0,ROTATION,0.537808895111084,-90,-140.251959176303,-50.2519591763026,70,179,msl000514,v3,1.19820904731751,6.69429898262024,-42.8708654403686,62.010514831543,4324
1,-60,1,1,0,1,PERTURBATION,0,ROTATION,0.483553171157837,135,-171.175725832047,53.8242741679532,70,180,msl000514,v3,0.728812694549561,3.23277878761292,-88.7928804397585,64.0122673034669,4324
1,0,1,1,0,1,PERTURBATION,0,ROTATION,0.137451887130737,90,129.275431935172,39.275431935172,70,181,msl000514,v3,0.400603532791138,2.94459462165833,-137.796385383603,58.3406352996827,4324
1,0,1,1,0,1,PERTURBATION,0,ROTATION,0.243727922439575,-45,-46.2546349041901,-1.2546349041901,70,182,msl000514,v3,0.362121343612671,1.10612440109253,45,50,4374
1,0,1,1,0,1,PERTURBATION,0,ROTATION,1.01463294029236,-135,-140.813580345606,-5.81358034560614,70,183,msl000514,v3,1.15199255943298,1.87996053695679,-45,50,4424
1,0,1,1,0,1,PERTURBATION,0,ROTATION,0.161014080047607,180,178.925444517923,-1.07455548207659,70,184,msl000514,v3,0.266571283340454,4.88262128829956,-90,50,4474
1,45,1,1,0,1,PERTURBATION,0,ROTATION,1.16092014312744,0,-6.07658130273295,-6.07658130273295,70,185,msl000514,v3,0.466633558273315,1.29062247276306,90,50,4474
1,45,1,1,0,1,PERTURBATION,0,ROTATION,0.795412063598633,90,41.227944560229,-48.772055439771,70,186,msl000514,v3,0.36510443687439,3.76513624191284,-219.200985908511,50,4524
1,45,1,1,0,1,PERTURBATION,1,ROTATION,0.155699968338013,135,169.923278224482,34.9232782244822,70,187,msl000514,v3,0.390790939331055,2.47080898284912,-109.644468688965,56.6725082397461,4524
1,45,1,1,0,1,PERTURBATION,0,ROTATION,0.0543110370635986,-45,-67.2896376852007,-22.2896376852007,70,188,msl000514,v3,1.29910755157471,3.58707571029663,12.6383350372316,62.6777656555176,4562
1,45,1,1,0,1,PERTURBATION,0,ROTATION,0.538717031478882,-90,-153.040954820975,-63.0409548209746,70,189,msl000514,v3,0.15195894241333,2.08801794052124,-45.3730560302733,50,4612
1,45,1,1,0,1,PERTURBATION,0,ROTATION,0.264653921127319,45,16.4384027732936,-28.5615972267064,70,190,msl000514,v3,2.00097346305847,4.19289946556091,108.97721786499,56.0052574157715,4656
1,45,1,1,0,1,PERTURBATION,0,ROTATION,0.385334968566895,180,146.476175081933,-33.5238249180667,70,191,msl000514,v3,0.843140840530396,3.05112075805664,-125.19748096466,56.3388828277588,4700
1,45,1,1,0,1,PERTURBATION,0,ROTATION,0.168174982070923,-135,-107.728579594783,27.2714204052166,70,192,msl000514,v3,2.54807424545288,4.10800123214722,-11.1370206832887,57.0061336517334,4700
1,-30,1,1,0,1,PERTURBATION,0,ROTATION,0.479161024093628,-90,-132.171721556955,-42.1717215569553,70,193,msl000514,v3,0.170998334884644,1.95494318008423,-33.5293539047242,50,4700
1,-30,1,1,0,1,PERTURBATION,0,ROTATION,0.401564121246338,135,159.642962328768,24.6429623287683,70,194,msl000514,v3,1.67006850242615,4.07802557945251,-105.640963745117,57.673384475708,4743
1,-30,1,1,0,1,PERTURBATION,0,ROTATION,0.63433313369751,45,73.6164472232844,28.6164472232844,70,195,msl000514,v3,1.37929153442383,3.8673243522644,165.860350608828,56.3388828277588,4787
1,-30,1,1,0,1,PERTURBATION,0,ROTATION,0.311441898345947,-135,-119.445795065084,15.5542049349158,70,196,msl000514,v3,0.203923463821411,1.62793254852295,-21.8130338668825,56.3388828277588,4831
1,-30,1,1,0,1,PERTURBATION,0,ROTATION,0.816384077072144,0,44.8055467778689,44.8055467778689,70,197,msl000514,v3,2.01036787033081,4.48233485221863,128.533735084533,55.6716320037842,4876
1,-30,1,1,0,1,PERTURBATION,0,ROTATION,0.156566143035889,90,90.7248271061703,0.724827106170295,70,198,msl000514,v3,0.443046569824219,1.97099566459656,-180,100,4876
1,-30,1,1,0,1,PERTURBATION,0,ROTATION,0.549476146697998,-45,-36.5631712929102,8.43682870708983,70,199,msl000514,v3,5.53370833396912,7.05380630493164,67.85334072113,61.0096385955811,4915
1,-30,1,1,0,1,PERTURBATION,0,ROTATION,0.168823003768921,180,176.980242018415,-3.01975798158531,70,200,msl000514,v3,0.79360294342041,1.58563494682312,-90,66.347645187378,4915
1,15,1,1,0,1,PERTURBATION,0,ROTATION,0.514846086502075,-90,-93.5119239049539,-3.51192390495386,70,201,msl000514,v3,0.258371353149414,1.06636738777161,0,50,4965
1,15,1,1,0,1,PERTURBATION,0,ROTATION,0.135607957839966,-135,-144.248918164095,-9.24891816409465,70,202,msl000514,v3,0.259542465209961,0.947579383850098,-45,50,5015
1,15,1,1,0,1,PERTURBATION,0,ROTATION,0.196959018707275,0,-6.49496085728063,-6.49496085728063,70,203,msl000514,v3,0.222384452819824,2.142329454422,90,24.3108432769774,5091
1,15,1,1,0,1,PERTURBATION,0,ROTATION,0.597119092941284,135,134.972869280544,-0.0271307194564088,70,204,msl000514,v3,0.78229832649231,1.47033619880676,-135,50,5141
1,15,1,1,0,1,PERTURBATION,0,ROTATION,0.234470844268799,90,92.58952306301,2.58952306300999,70,205,msl000514,v3,0.270844459533691,1.03086233139038,-180,50,5191
1,15,1,1,0,1,PERTURBATION,0,ROTATION,0.243941068649292,180,175.723557757559,-4.2764422424415,70,206,msl000514,v3,0.402689695358276,1.11468863487244,-90,50,5241
1,15,1,1,0,1,PERTURBATION,0,ROTATION,1.12416911125183,45,30.7297906380372,-14.2702093619628,70,207,msl000514,v3,0.176404476165772,0.6883704662323,135,50,5291
1,15,1,1,0,1,PERTURBATION,0,ROTATION,0.448005199432373,-45,-51.8441347720306,-6.84413477203058,70,208,msl000514,v3,0.14865517616272,0.772594213485718,45,50,5341
1,-45,1,1,0,1,PERTURBATION,0,ROTATION,0.324229955673218,-90,-94.8949284618155,-4.89492846181551,70,209,msl000514,v3,0.510646104812622,1.13462901115418,0,50,5341
1,-45,1,1,0,1,PERTURBATION,1,ROTATION,2.22558283805847,45,73.2851298224189,28.285129822419,70,210,msl000514,v3,0.138025522232056,3.24201154708862,168.862979316714,59.6751369476319,5341
1,-45,1,1,0,1,PERTURBATION,0,ROTATION,0.931342124938965,90,127.931156118656,37.9311561186558,70,211,msl000514,v3,0.332803249359131,2.17287921905518,-141.633077621457,62.3441402435303,5379
1,-45,1,1,0,1,PERTURBATION,0,ROTATION,0.892950057983398,0,44.5359882670815,44.5359882670815,70,212,msl000514,v3,0.832073926925659,2.88815975189209,128.033296966552,58.3406352996827,5421
1,-45,1,1,0,1,PERTURBATION,0,ROTATION,0.876804828643799,135,167.265398141369,32.2653981413688,70,213,msl000514,v3,1.20778679847717,3.64776468276978,-103.138773155212,50,5471
1,-45,1,1,0,1,PERTURBATION,0,ROTATION,0.807988882064819,-45,-19.7484656291238,25.2515343708762,70,214,msl000514,v3,0.295101642608643,1.93520069122315,80.5311063766474,61.3432640075684,5510
1,-45,1,1,0,1,PERTURBATION,0,ROTATION,1.56354880332947,-135,-104.523459270234,30.4765407297664,70,215,msl000514,v3,2.96760511398315,4.52755212783814,-12.4715223312379,63.0113910675049,5547
1,-45,1,1,0,1,PERTURBATION,0,ROTATION,0.854565858840942,180,-130.410810695669,49.589189304331,70,216,msl000514,v3,0.348028182983398,2.13999128341675,-50.2985759735114,61.6768894195557,5547
1,60,1,1,0,1,PERTURBATION,0,ROTATION,0.245999097824097,-45,-17.5730744095055,27.4269255904945,70,217,msl000514,v3,0.855087518692017,2.2791473865509,78.3625411987299,58.3406352996827,5547
1,60,1,1,0,1,PERTURBATION,0,ROTATION,0.599046945571899,45,40.6434126934331,-4.35658730656684,70,218,msl000514,v3,1.13390779495239,5.2858738899231,138.16944141388,98.709310150146,5547
1,60,1,1,0,1,PERTURBATION,0,ROTATION,0.357135057449341,135,90.6882963576914,-44.3117036423087,70,219,msl000514,v3,2.35845613479614,5.02244424819946,-176.369551086429,61.3432640075684,5586
1,60,1,1,0,1,PERTURBATION,0,ROTATION,1.01007986068726,180,134.306342803699,-45.693657196301,70,220,msl000514,v3,0.574047565460205,6.22207760810852,-133.538116264343,28.9815990447997,5658
1,60,1,1,0,1,PERTURBATION,0,ROTATION,0.375077962875366,90,93.1453598162416,3.14535981624155,70,221,msl000514,v3,5.03224945068359,10.4082505702972,-177.330996704101,100,5658
1,60,1,1,0,1,PERTURBATION,0,ROTATION,0.14877200126648,0,-55.6493977293376,-55.6493977293376,70,222,msl000514,v3,0.545583248138428,2.53756642341614,49.1308870315559,66.6812705993653,5692
1,60,1,1,0,1,PERTURBATION,0,ROTATION,0.285786867141724,-90,-123.030248332049,-33.030248332049,70,223,msl000514,v3,0.537648677825928,2.16963076591492,-36.0315444946289,61.0096385955811,5731
1,60,1,1,0,1,PERTURBATION,0,ROTATION,0.324977874755859,-135,-170.675530661146,-35.6755306611461,70,224,msl000514,v3,0.254333734512329,2.15826773643494,-86.7031764984124,62.3441402435303,5769
1,-15,1,1,0,1,PERTURBATION,0,ROTATION,0.347943067550659,45,-4.593852584707,-49.593852584707,70,225,msl000514,v3,1.88290643692017,4.4269335269928,95.9658267974854,60.3423877716065,5769
1,-15,1,1,0,1,PERTURBATION,0,ROTATION,0.622334003448486,135,136.051723787052,1.05172378705197,70,226,msl000514,v3,0.714013338088989,1.56199431419373,-135,50,5819
1,-15,1,1,0,1,PERTURBATION,0,ROTATION,0.492825984954834,0,-3.92315360687378,-3.92315360687378,70,227,msl000514,v3,12.698343038559,14.6023600101471,90,34.3196056365966,5819
1,-15,1,1,0,1,PERTURBATION,0,ROTATION,0.591923952102661,-135,-147.037300211936,-12.0373002119356,70,228,msl000514,v3,1.49176454544067,2.70772647857666,-63.1825849533078,62.3441402435303,5857
1,-15,1,1,0,1,PERTURBATION,0,ROTATION,0.0750789642333984,-90,-91.6514081387274,-1.65140813872743,70,229,msl000514,v3,0.449928760528565,1.41788291931152,0,27.6470973968505,5857
1,-15,1,1,0,1,PERTURBATION,0,ROTATION,0.347954034805298,180,168.58596006586,-11.4140399341397,70,230,msl000514,v3,0.680892705917358,2.83290362358093,-106.180832481384,60.6760131835938,5897
1,-15,1,1,0,1,PERTURBATION,0,ROTATION,0.333546876907349,-45,-44.989037917991,0.0109620820090015,70,231,msl000514,v3,0.285920381546021,1.40589332580566,45,58.67426071167,5939
1,-15,1,1,0,1,PERTURBATION,0,ROTATION,0.906723976135254,90,91.744297388196,1.74429738819596,70,232,msl000514,v3,0.330868244171143,1.00285220146179,-180,61.6768894195557,5978
1,30,1,1,0,1,PERTURBATION,0,ROTATION,0.0780060291290283,0,-21.7373441625468,-21.7373441625468,70,233,msl000514,v3,0.54125714302063,2.6772472858429,77.9894851684572,61.0096385955811,6017
1,30,1,1,0,1,PERTURBATION,0,ROTATION,0.0728859901428223,90,99.6874324393946,9.68743243939463,70,234,msl000514,v3,0.791328191757202,2.87135910987854,-164.653231048583,61.3432640075684,6017
1,30,1,1,0,1,PERTURBATION,0,ROTATION,0.457930088043213,-45,-56.0065996803143,-11.0065996803143,70,235,msl000514,v3,0.585580587387085,3.00163245201111,28.4855421066286,60.6760131835938,6057
1,30,1,1,0,1,PERTURBATION,0,ROTATION,0.603224992752075,-90,-118.352473998298,-28.3524739982981,70,236,msl000514,v3,0.380600690841675,2.23655986785889,-26.8568456649781,50,6107
1,30,1,1,0,1,PERTURBATION,0,ROTATION,0.113981008529663,135,107.080993691559,-27.9190063084414,70,237,msl000514,v3,0.457415342330933,3.8254714012146,-156.352026367189,43.6611171722412,6164
1,30,1,1,0,1,PERTURBATION,0,ROTATION,1.32244491577148,45,8.88457536149971,-36.1154246385003,70,238,msl000514,v3,0.785483837127686,4.00931286811829,117.985103988647,40.3248630523681,6224
1,30,1,1,0,1,PERTURBATION,0,ROTATION,0.635823965072632,180,160.991720324245,-19.0082796757554,70,239,msl000514,v3,0.429709434509277,2.61371040344238,-107.014896011352,59.3415115356446,6265
1,30,1,1,0,1,PERTURBATION,0,ROTATION,0.201265096664429,-135,-165.886978001389,-30.8869780013889,70,240,msl000514,v3,2.12457871437073,3.99647974967957,-77.6952903747553,58.3406352996827,6307
0,0,1,1,0,0,BASELINE,0,NONE,1.02043914794922,0,0.767768162493547,0.767768162493547,70,1,msl000517,v3,0,0,0,0,0
0,0,1,1,0,0,BASELINE,0,NONE,0.597526073455811,-90,-112.120352357506,-22.1203523575058,70,2,msl000517,v3,0,0,0,0,0
0,0,1,1,0,0,BASELINE,0,NONE,0.454128980636597,180,167.279542626626,-12.720457373374,70,3,msl000517,v3,0,0,0,0,0
0,0,1,1,0,0,BASELINE,0,NONE,0.578305959701538,-45,-34.6151194282248,10.3848805717752,70,4,msl000517,v3,0,0,0,0,0
0,0,1,1,0,0,BASELINE,0,NONE,0.360730886459351,-135,-144.822784696758,-9.82278469675782,70,5,msl000517,v3,0,0,0,0,0
0,0,1,1,0,0,BASELINE,0,NONE,0.377907037734985,135,134.820625647881,-0.179374352119027,70,6,msl000517,v3,0,0,0,0,0
0,0,1,1,0,0,BASELINE,0,NONE,0.358700037002564,90,85.937822458058,-4.06217754194202,70,7,msl000517,v3,0,0,0,0,0
0,0,1,1,0,0,BASELINE,0,NONE,0.101483106613159,45,39.8694042548376,-5.13059574516241,70,8,msl000517,v3,0,0,0,0,0
0,0,1,1,0,0,BASELINE,0,NONE,0.495880126953125,180,174.018355299067,-5.98164470093298,70,9,msl000517,v3,0,0,0,0,0
0,0,1,1,0,0,BASELINE,0,NONE,0.444439888000488,90,82.8760892916769,-7.12391070832307,70,10,msl000517,v3,0,0,0,0,0
0,0,1,1,0,0,BASELINE,0,NONE,0.381124973297119,0,0.0103419593815312,0.0103419593815312,70,11,msl000517,v3,0,0,0,0,0
0,0,1,1,0,0,BASELINE,0,NONE,0.435467004776001,-90,-91.6070859541843,-1.60708595418433,70,12,msl000517,v3,0,0,0,0,0
0,0,1,1,0,0,BASELINE,0,NONE,0.468301057815552,135,141.699112661616,6.69911266161552,70,13,msl000517,v3,0,0,0,0,0
0,0,1,1,0,0,BASELINE,0,NONE,0.435322046279907,-45,-35.7053275709112,9.29467242908878,70,14,msl000517,v3,0,0,0,0,0
0,0,1,1,0,0,BASELINE,0,NONE,0.372942209243774,45,38.2061077783952,-6.79389222160479,70,15,msl000517,v3,0,0,0,0,0
0,0,1,1,0,0,BASELINE,0,NONE,0.354523897171021,-135,-147.386077144346,-12.3860771443457,70,16,msl000517,v3,0,0,0,0,0
0,0,1,1,1,1,BASELINE_AIM,1,NONE,,0,-147.80417920235,-147.80417920235,70,17,msl000517,v3,9.83029770851135,0,90,48.9991283416748,0
0,0,1,1,0,1,BASELINE_AIM,0,NONE,1.13656616210938,90,83.7299943505584,-6.27000564944164,70,18,msl000517,v3,3.97202825546265,8.65207004547119,-180,68.6829376220703,32
0,0,1,1,0,1,BASELINE_AIM,0,NONE,1.2057249546051,180,176.32957105261,-3.6704289473897,70,19,msl000517,v3,3.47340250015259,14.5615603923798,-84.4952058792114,42.6602745056152,90
0,0,1,1,0,1,BASELINE_AIM,0,NONE,1.04489302635193,45,44.9536128659193,-0.0463871340807174,70,20,msl000517,v3,0.928524732589722,13.8086457252502,129.161581993103,64.3458271026611,126
0,0,1,1,0,1,BASELINE_AIM,0,NONE,1.56888103485107,-45,-38.2492185125402,6.75078148745985,70,21,msl000517,v3,2.32756447792053,6.79951858520508,43.8323163986206,25.6454563140869,201
0,0,1,1,0,1,BASELINE_AIM,0,NONE,0.611057043075562,135,136.365428472561,1.36542847256126,70,22,msl000517,v3,0.691028118133545,5.80304312705994,-125.491719245911,35.6541728973389,266
0,0,1,1,0,1,BASELINE_AIM,0,NONE,0.471905946731567,-90,-87.8322193256116,2.16778067438842,70,23,msl000517,v3,1.91689825057983,3.54891014099121,0,21.3083457946777,345
0,0,1,1,0,1,BASELINE_AIM,0,NONE,0.69700288772583,-135,-153.761994908363,-18.7619949083626,70,24,msl000517,v3,0.485925674438477,3.00589776039124,-47.502179145813,25.3118324279785,345
0,0,1,1,0,1,BASELINE_AIM,0,NONE,0.693527936935425,180,-168.325674929348,11.674325070652,70,25,msl000517,v3,7.39173102378845,11.191771030426,-90,75.3554153442383,345
0,0,1,1,0,1,BASELINE_AIM,0,NONE,1.18042397499084,-45,-55.7155146088224,-10.7155146088224,70,26,msl000517,v3,2.08899784088135,5.10499691963196,31.6550445556641,50,395
0,0,1,1,0,1,BASELINE_AIM,0,NONE,1.00121688842773,90,100.176645250073,10.1766452500726,70,27,msl000517,v3,2.70299482345581,4.93501091003418,-180,36.6550445556641,459
0,0,1,1,0,1,BASELINE_AIM,0,NONE,1.34034204483032,45,39.7013053837334,-5.29869461626662,70,28,msl000517,v3,2.05313968658447,5.79708981513977,129.82882976532,33.9860534667969,526
0,0,1,1,0,1,BASELINE_AIM,0,NONE,1.10427284240723,-90,-88.2451550124732,1.75484498752681,70,29,msl000517,v3,0.774672031402588,3.55862307548523,-3.50305080413818,28.9816951751709,598
0,0,1,1,0,1,BASELINE_AIM,0,NONE,0.537929058074951,0,-0.0798724188164389,-0.0798724188164389,70,30,msl000517,v3,1.34967374801636,2.82969784736633,90,27.3135757446289,671
0,0,1,1,0,1,BASELINE_AIM,0,NONE,1.04360389709473,135,146.421780545457,11.4217805454571,70,31,msl000517,v3,1.15616679191589,3.02815580368042,-135,24.6445846557617,747
0,0,1,1,0,1,BASELINE_AIM,0,NONE,0.662178993225098,-135,-135.045133450149,-0.0451334501485405,70,32,msl000517,v3,5.12480735778809,8.82091426849365,-39.161581993103,59.0078449249268,788
1,-60,1,1,0,1,PERTURBATION,0,ROTATION,1.2606520652771,135,138.050246777025,3.05024677702545,70,33,msl000517,v3,1.88521766662598,3.83718872070313,-135,71.0183048248291,788
1,-60,1,1,0,1,PERTURBATION,0,ROTATION,0.756454944610596,-90,-67.9342685635723,22.0657314364277,70,34,msl000517,v3,6.52084946632385,10.9527735710144,21.5187406539917,69.0165615081787,788
1,-60,1,1,0,1,PERTURBATION,0,ROTATION,0.55677604675293,-135,-103.231051292028,31.768948707972,70,35,msl000517,v3,0.469771146774292,6.46180415153503,-12.1380472183228,68.3493137359619,820
1,-60,1,1,0,1,PERTURBATION,0,ROTATION,0.297116041183472,90,46.291701173199,-43.708298826801,70,36,msl000517,v3,7.67908930778503,15.9111154079437,-217.199063301086,58.6742210388184,820
1,-60,1,1,0,1,PERTURBATION,0,ROTATION,0.600328922271729,0,50.4919132765344,50.4919132765344,70,37,msl000517,v3,3.63274669647217,7.71274876594544,140.04358291626,50,870
1,-60,1,1,0,1,PERTURBATION,0,ROTATION,0.204109191894531,45,100.308943569041,55.3089435690409,70,38,msl000517,v3,2.4172637462616,7.96128153800964,177.537045478821,55.3379821777344,915
1,-60,1,1,0,1,PERTURBATION,0,ROTATION,0.361024141311646,180,-157.193465874543,22.8065341254566,70,39,msl000517,v3,2.14015674591065,9.77219772338867,-48.2970142364502,50,915
1,-60,1,1,0,1,PERTURBATION,0,ROTATION,0.502777099609375,-45,5.17230175421204,50.172301754212,70,40,msl000517,v3,1.1478066444397,5.77986168861389,93.2086515426636,50,965
1,45,1,1,0,1,PERTURBATION,0,ROTATION,0.246654987335205,135,176.081347717387,41.0813477173866,70,41,msl000517,v3,5.04637336730957,11.4303903579712,-84.789605140686,50,965
1,45,1,1,0,1,PERTURBATION,0,ROTATION,0.186283111572266,-90,-140.238180703248,-50.2381807032479,70,42,msl000517,v3,0.688016653060913,4.15204358100891,-40.201678276062,30.6498146057129,1035
1,45,1,1,0,1,PERTURBATION,0,ROTATION,0.314473867416382,180,143.833595216168,-36.1664047838318,70,43,msl000517,v3,0.706503391265869,5.29054236412048,-133.871541023254,35.6541728973389,1100
1,45,1,1,0,1,PERTURBATION,0,ROTATION,0.640513896942139,90,58.4715097989889,-31.5284902010112,70,44,msl000517,v3,0.826217651367188,7.77823448181152,-224.038352966309,26.6463279724121,1100
1,45,1,1,0,1,PERTURBATION,0,ROTATION,0.467695236206055,45,14.3627209163888,-30.6372790836112,70,45,msl000517,v3,1.58585548400879,6.39385652542114,92.9633903503418,61.0095882415772,1139
1,45,1,1,0,1,PERTURBATION,0,ROTATION,0.235522985458374,0,-55.2425499758181,-55.2425499758181,70,46,msl000517,v3,0.515767812728882,4.13975381851196,41.6245365142822,29.3153190612793,1210
1,45,1,1,0,1,PERTURBATION,0,ROTATION,0.117886066436768,-135,-174.242996589543,-39.242996589543,70,47,msl000517,v3,3.31885957717896,9.42287468910217,-87.5370454788208,72.3528003692627,1238
1,45,1,1,0,1,PERTURBATION,0,ROTATION,0.281147003173828,-45,-86.4038238465929,-41.4038238465929,70,48,msl000517,v3,0.887465953826904,5.04746294021606,5.63238143920898,31.3170623779297,1307
1,-30,1,1,0,1,PERTURBATION,0,ROTATION,1.09076905250549,90,48.0203606643983,-41.9796393356017,70,49,msl000517,v3,6.25717782974243,10.0971479415894,-225.039224624634,64.3458271026611,1307
1,-30,1,1,0,1,PERTURBATION,0,ROTATION,1.28790092468262,0,43.6623668626822,43.6623668626822,70,50,msl000517,v3,2.5687210559845,9.47276306152344,112.352800369263,75.0217914581299,1332
1,-30,1,1,0,1,PERTURBATION,0,ROTATION,0.983863830566406,180,170.812752860971,-9.18724713902935,70,51,msl000517,v3,0.344393491744995,5.49637746810913,-107.348442077637,72.6864242553711,1332
1,-30,1,1,0,1,PERTURBATION,0,ROTATION,0.172811031341553,135,150.25850089371,15.2585008937099,70,52,msl000517,v3,3.03480887413025,6.05086088180542,-110.979080200195,67.6820659637451,1365
1,-30,1,1,0,1,PERTURBATION,0,ROTATION,0.681890964508057,-90,-94.3501523185262,-4.35015231852616,70,53,msl000517,v3,0.137614965438843,4.0336549282074,19.6838092803955,83.3623886108398,1382
1,-30,1,1,0,1,PERTURBATION,0,ROTATION,2.4474151134491,-135,-147.08169250976,-12.0816925097603,70,54,msl000517,v3,0.236412286758423,2.00441122055054,-17.6428413391113,50,1382
1,-30,1,1,0,1,PERTURBATION,0,ROTATION,0.665125846862793,-45,-49.9396020821646,-4.93960208216456,70,55,msl000517,v3,0.987578153610229,3.45960021018982,84.5344305038452,40.9921550750732,1382
1,-30,1,1,0,1,PERTURBATION,0,ROTATION,0.455418825149536,45,51.5526941126817,6.55269411268171,70,56,msl000517,v3,0.553456544876099,6.2654447555542,151.514382362366,75.6890392303467,1407
1,0,1,1,0,1,PERTURBATION,0,ROTATION,0.535208940505981,135,145.103055823818,10.1030558238177,70,57,msl000517,v3,0.849916934967041,7.24193501472473,-165.526585578919,80.3597736358643,1427
1,0,1,1,0,1,PERTURBATION,0,ROTATION,0.0755231380462647,0,-0.999536224202206,-0.999536224202206,70,58,msl000517,v3,0.894144535064697,2.68615245819092,84.8288297653198,61.676836013794,1466
1,0,1,1,0,1,PERTURBATION,0,ROTATION,0.953433990478516,45,55.7216111847107,10.7216111847107,70,59,msl000517,v3,1.10682678222656,3.18682479858398,135,31.3170623779297,1535
1,0,1,1,0,1,PERTURBATION,0,ROTATION,0.580742835998535,-135,-135.321202445658,-0.32120244565823,70,60,msl000517,v3,0.605120420455933,1.87707543373108,-45,20.9747219085693,1615
1,15,1,1,0,1,PERTURBATION,0,ROTATION,0.654101848602295,-90,-85.4183892763876,4.58161072361246,70,61,msl000517,v3,0.696217060089111,1.93614006042481,0,17.304859161377,1615
1,15,1,1,0,1,PERTURBATION,0,ROTATION,0.442344903945923,180,155.019781964957,-24.9802180350435,70,62,msl000517,v3,1.2714626789093,3.64747047424316,-108.182501792908,36.9886684417725,1679
1,15,1,1,0,1,PERTURBATION,0,ROTATION,0.0506150722503662,90,96.6924353245366,6.69243532453662,70,63,msl000517,v3,0.527379751205444,2.34337282180786,-180,65.6803226470947,1714
1,15,1,1,0,1,PERTURBATION,0,ROTATION,0.48319411277771,-45,-37.0275034817242,7.97249651827578,70,64,msl000517,v3,2.29179286956787,4.83575797080994,26.8174982070923,70.3510570526123,1744
1,15,1,1,0,1,PERTURBATION,0,ROTATION,0.733991146087647,-45,-60.056129020928,-15.056129020928,70,65,msl000517,v3,1.59189438819885,4.9439263343811,23.4812593460083,61.3432121276856,1783
1,15,1,1,0,1,PERTURBATION,0,ROTATION,0.45297384262085,-135,-144.007343859759,-9.00734385975855,70,66,msl000517,v3,0.976947784423828,4.85695195198059,-25.8166265487671,78.3580303192139,1805
1,15,1,1,0,1,PERTURBATION,0,ROTATION,0.0821430683135986,135,131.448755084967,-3.55124491503338,70,67,msl000517,v3,1.21797561645508,3.9620156288147,-128.494334220886,35.3205490112305,1870
1,15,1,1,0,1,PERTURBATION,0,ROTATION,0.468923091888428,-90,-92.7067221422681,-2.70672214226811,70,68,msl000517,v3,0.895758390426636,3.47979140281677,10.3423404693603,65.3466987609863,1905
1,-45,1,1,0,1,PERTURBATION,0,ROTATION,0.0500760078430176,90,89.9465327552312,-0.0534672447688109,70,69,msl000517,v3,0.606166362762451,3.03815937042236,-189.841904640198,67.3484420776367,1905
1,-45,1,1,0,1,PERTURBATION,0,ROTATION,0.821825981140137,45,94.9488409586234,49.9488409586234,70,70,msl000517,v3,1.38157248497009,6.14158153533936,167.19470500946,57.6733493804932,1948
1,-45,1,1,0,1,PERTURBATION,0,ROTATION,0.464028835296631,0,52.6967482461602,52.6967482461602,70,71,msl000517,v3,0.359441041946411,5.15147304534912,121.027021408081,35.6541728973389,2013
1,-45,1,1,0,1,PERTURBATION,0,ROTATION,0.318386077880859,180,160.423956496159,-19.5760435038405,70,72,msl000517,v3,1.08736395835877,4.50345993041992,-127.532687187195,61.0095882415772,2013
1,-45,1,1,0,1,PERTURBATION,0,ROTATION,0.710510969161987,-45,-20.3568120345017,24.6431879654983,70,73,msl000517,v3,3.9560387134552,7.03606081008911,74.1920900344849,86.6986274719238,2027
1,-45,1,1,0,1,PERTURBATION,0,ROTATION,0.185535907745361,135,167.198835982307,32.1988359823069,70,74,msl000517,v3,0.499763488769531,9.01981353759766,-100.469927787781,25.6454563140869,2027
1,-45,1,1,0,1,PERTURBATION,0,ROTATION,0.646627902984619,-90,-67.2014586923346,22.7985413076654,70,75,msl000517,v3,1.67713165283203,3.82115077972412,31.3606452941895,21.9755935668945,2027
1,-45,1,1,0,1,PERTURBATION,0,ROTATION,0.450690984725952,90,137.698801613548,47.6988016135479,70,76,msl000517,v3,1.03516340255737,3.87523627281189,-144.63586807251,31.9843101501465,2096
1,60,1,1,0,1,PERTURBATION,0,ROTATION,0.648201942443848,0,41.3616573911387,41.3616573911387,70,77,msl000517,v3,0.48264217376709,3.65859007835388,79.3240356445313,87.0322513580322,2096
1,60,1,1,0,1,PERTURBATION,0,ROTATION,0.209527015686035,180,-120.562896062388,59.4371039376125,70,78,msl000517,v3,3.74015974998474,7.28421568870544,-30.6149482727051,70.0174331665039,2096
1,60,1,1,0,1,PERTURBATION,0,ROTATION,0.438490152359009,-135,-175.336268252939,-40.3362682529386,70,79,msl000517,v3,0.467435121536255,4.0114541053772,-93.542275428772,50,2146
1,60,1,1,0,1,PERTURBATION,0,ROTATION,0.640708923339844,45,-12.9987819067177,-57.9987819067177,70,80,msl000517,v3,1.40525889396668,6.45331192016602,74.2804527282715,36.6550445556641,2210
1,60,1,1,0,1,PERTURBATION,0,ROTATION,0.553099870681763,135,78.5979253610084,-56.4020746389916,70,81,msl000517,v3,2.85464262962341,8.11864280700684,-198.054914474487,50,2260
1,60,1,1,0,1,PERTURBATION,0,ROTATION,0.319269895553589,-90,-142.078840227799,-52.0788402277986,70,82,msl000517,v3,1.00960993766785,3.65755581855774,-50.0435829162598,20.6410980224609,2340
1,60,1,1,0,1,PERTURBATION,0,ROTATION,0.432212114334106,-135,-174.884057908959,-39.8840579089594,70,83,msl000517,v3,0.361607313156128,3.07361125946045,-90.7064723968506,10.9660053253174,2340
1,60,1,1,0,1,PERTURBATION,0,ROTATION,0.474555969238281,180,115.867560809922,-64.1324391900779,70,84,msl000517,v3,0.329990148544312,4.0500500202179,-164.064502716065,43.9947700500488,2397
1,-15,1,1,0,1,PERTURBATION,0,ROTATION,0.636654853820801,45,-9.67597125288553,-54.6759712528855,70,85,msl000517,v3,1.14402294158936,4.58396792411804,75.7817602157593,50,2397
1,-15,1,1,0,1,PERTURBATION,0,ROTATION,0.577582120895386,0,5.10346882359025,5.10346882359025,70,86,msl000517,v3,0.972033023834229,2.36399602890015,90,19.9738502502441,2478
1,-15,1,1,0,1,PERTURBATION,0,ROTATION,0.0732049942016602,90,126.534938842607,36.5349388426073,70,87,msl000517,v3,7.02120137214661,10.4292273521423,-166.988668441773,18.6393547058106,2478
1,-15,1,1,0,1,PERTURBATION,0,ROTATION,0.214075803756714,-45,-47.7382471384523,-2.73824713845234,70,88,msl000517,v3,1.90997505187988,4.4539680480957,33.8235998153687,18.972978591919,2478
1,-15,1,1,0,1,PERTURBATION,0,ROTATION,0.573359966278076,0,26.2135409684673,26.2135409684673,70,89,msl000517,v3,0.299963235855103,3.68399930000305,96.1720418930054,50,2528
1,-15,1,1,0,1,PERTURBATION,1,ROTATION,1.31690287590027,90,102.710111316439,12.7101113164387,70,90,msl000517,v3,1.8744158744812,38.4827520847321,-187.506537437439,14.3022441864014,2528
1,-15,1,1,0,1,PERTURBATION,0,ROTATION,0.710504055023193,45,43.8859865115093,-1.11401348849067,70,91,msl000517,v3,1.00813674926758,4.24815559387207,135,61.676836013794,2567
1,-15,1,1,0,1,PERTURBATION,0,ROTATION,0.470845937728882,135,152.027777121049,17.0277771210486,70,92,msl000517,v3,7.90430998802185,11.4963481426239,-117.985181808472,43.327522277832,2624
1,0,1,1,0,1,PERTURBATION,0,ROTATION,0.50312089920044,180,-160.347782682019,19.6522173179806,70,93,msl000517,v3,0.430140733718872,3.7421567440033,-74.4864892959595,16.6376113891602,2624
1,0,1,1,0,1,PERTURBATION,0,ROTATION,0.402720928192139,-90,-75.6872944319966,14.3127055680034,70,94,msl000517,v3,0.175825595855713,3.2558605670929,-3.83667469024658,38.3231639862061,2686
1,0,1,1,0,1,PERTURBATION,0,ROTATION,0.605798959732056,-135,-148.679275044839,-13.6792750448392,70,95,msl000517,v3,1.84621500968933,3.85419893264771,-41.663761138916,18.3057308197021,2686
1,0,1,1,0,1,PERTURBATION,0,ROTATION,0.166279077529907,-45,-24.2716862769716,20.7283137230284,70,96,msl000517,v3,1.06899499893189,3.76494598388672,57.3440837860107,15.636739730835,2686
1,30,1,1,0,1,PERTURBATION,0,ROTATION,0.505064010620117,-135,-157.877391873434,-22.8773918734341,70,97,msl000517,v3,2.72898054122925,16.9931445121765,-58.0113315582275,36.9886684417725,2750
1,30,1,1,0,1,PERTURBATION,0,ROTATION,0.450748920440674,-45,-66.7109627092795,-21.7109627092795,70,98,msl000517,v3,0.56478762626648,3.77275276184082,27.8183698654175,13.6349964141846,2750
1,30,1,1,0,1,PERTURBATION,0,ROTATION,0.497644186019898,135,124.972167012068,-10.0278329879318,70,99,msl000517,v3,0.788234710693359,4.05234169960022,-158.186860084534,38.9904117584229,2750
1,30,1,1,0,1,PERTURBATION,0,ROTATION,0.852617979049683,45,6.91184264482481,-38.0881573551752,70,100,msl000517,v3,0.452298641204834,6.14040064811707,100.136303901672,67.6820659637451,2783
1,30,1,1,0,1,PERTURBATION,0,ROTATION,1.12624192237854,-90,-130.180328898206,-40.1803288982064,70,101,msl000517,v3,0.469598293304443,4.66160035133362,-26.3562870025635,33.9860534667969,2850
1,30,1,1,0,1,PERTURBATION,0,ROTATION,0.630516052246094,90,57.9836637488371,-32.0163362511629,70,102,msl000517,v3,2.01385593414307,6.98180794715881,-204.521355628967,23.3100891113281,2927
1,30,1,1,0,1,PERTURBATION,0,ROTATION,0.342984199523926,0,-27.8685914943079,-27.8685914943079,70,103,msl000517,v3,0.265574216842651,2.90554404258728,65.4786443710327,6.6288948059082,3021
1,30,1,1,0,1,PERTURBATION,0,ROTATION,0.128118991851807,180,147.383573139401,-32.616426860599,70,104,msl000517,v3,0.368815898895264,3.56880474090576,-114.688167572022,11.6332530975342,3110
1,-60,1,1,0,1,PERTURBATION,0,ROTATION,0.643234014511108,-45,-73.2619121179987,-28.2619121179987,70,105,msl000517,v3,0.366609811782837,5.63858699798584,21.6463279724121,11.9668769836426,3110
1,-60,1,1,0,1,PERTURBATION,0,ROTATION,0.574185132980347,180,-134.073559432833,45.9264405671674,70,106,msl000517,v3,3.82011675834656,8.93211770057678,-33.9511871337891,64.0122032165527,3110
1,-60,1,1,0,1,PERTURBATION,0,ROTATION,0.0932199954986572,135,-153.655171527427,71.3448284725727,70,107,msl000517,v3,0.40402626991272,7.93211627006531,-61.6027450561523,42.9938983917236,3110
1,-60,1,1,0,1,PERTURBATION,0,ROTATION,0.365939855575562,45,86.0531186070823,41.0531186070823,70,108,msl000517,v3,0.312989950180054,4.99305510520935,177.870669364929,28.9816951751709,3110
1,-60,1,1,0,1,PERTURBATION,0,ROTATION,0.752545833587647,90,142.444337495834,52.4443374958337,70,109,msl000517,v3,0.41674542427063,6.66484546661377,-110.439419746399,42.3266506195068,3168
1,-60,1,1,0,1,PERTURBATION,0,ROTATION,0.035642147064209,-90,-18.6868845702281,71.3131154297719,70,110,msl000517,v3,0.573952674865723,5.56594967842102,67.3920249938965,21.3083457946777,3168
1,-60,1,1,0,1,PERTURBATION,0,ROTATION,0.244863033294678,-135,152.450774951823,-72.5492250481772,70,111,msl000517,v3,0.58500337600708,9.87321829795837,-98.3798217773438,29.9825668334961,3168
1,-60,1,1,0,1,PERTURBATION,0,ROTATION,0.649651050567627,0,70.133005869762,70.133005869762,70,112,msl000517,v3,3.39532351493835,14.0994164943695,155.5570936203,77.3571586608887,3191
1,45,1,1,0,1,PERTURBATION,0,ROTATION,0.330048084259033,-45,-1.96931204569913,43.0306879543009,70,113,msl000517,v3,0.442221879959106,8.69822573661804,88.537917137146,58.0069732666016,3191
1,45,1,1,0,1,PERTURBATION,0,ROTATION,1.45830917358398,-90,-139.21884798731,-49.2188479873098,70,114,msl000517,v3,0.708872556686401,6.15695261955261,-43.537917137146,27.9808235168457,3264
1,45,1,1,0,1,PERTURBATION,0,ROTATION,0.563865900039673,135,101.266837416157,-33.7331625838431,70,115,msl000517,v3,0.881411075592041,4.68936610221863,-179.705600738525,33.9860534667969,3331
1,45,1,1,0,1,PERTURBATION,0,ROTATION,0.932579040527344,180,109.994669817657,-70.005330182343,70,116,msl000517,v3,0.79996395111084,6.27997303009033,-164.064502716065,25.3118324279785,3331
1,45,1,1,0,1,PERTURBATION,0,ROTATION,0.64708685874939,45,-0.0147390990687473,-45.0147390990687,70,117,msl000517,v3,0.344191074371338,7.91232204437256,90.1275873184204,56.3388538360596,3375
1,45,1,1,0,1,PERTURBATION,0,ROTATION,0.1441810131073,0,-59.1400952343565,-59.1400952343565,70,118,msl000517,v3,0.813101053237915,4.5731680393219,38.2882976531982,32.9851818084717,3443
1,45,1,1,0,1,PERTURBATION,0,ROTATION,0.640527009963989,-135,-161.796327379831,-26.7963273798307,70,119,msl000517,v3,0.259169578552246,3.4672155380249,-78.6960124969482,54.3371105194092,3489
1,45,1,1,0,1,PERTURBATION,0,ROTATION,0.564075946807861,90,37.2381131598913,-52.7618868401087,70,120,msl000517,v3,0.310995101928711,5.95096802711487,-235.882000923157,68.0156898498535,3521
1,-30,1,1,0,1,PERTURBATION,0,ROTATION,0.375848054885864,-135,-167.133760724579,-32.1337607245789,70,121,msl000517,v3,0.976828575134277,5.04086661338806,-80.197319984436,58.0069732666016,3521
1,-30,1,1,0,1,PERTURBATION,0,ROTATION,0.780744075775147,45,87.8528870407824,42.8528870407825,70,122,msl000517,v3,8.96819567680359,14.1601927280426,161.523098945618,87.699499130249,3534
1,-30,1,1,0,1,PERTURBATION,0,ROTATION,0.619379997253418,0,41.7743644583924,41.7743644583924,70,123,msl000517,v3,3.16560506820679,7.62159705162048,122.695140838623,50,3584
1,-30,1,1,0,1,PERTURBATION,0,ROTATION,0.0240998268127441,90,126.34772872411,36.3477287241104,70,124,msl000517,v3,0.0730345249176025,3.84105134010315,-156.979951858521,32.9851818084717,3652
1,-30,1,1,0,1,PERTURBATION,0,ROTATION,0.121797800064087,-45,-20.6270495855983,24.3729504144017,70,125,msl000517,v3,0.845148086547852,4.0932252407074,64.5169973373413,26.3127040863037,3726
1,-30,1,1,0,1,PERTURBATION,0,ROTATION,0.13630485534668,135,162.807107082808,27.8071070828079,70,126,msl000517,v3,1.42138719558716,5.16537117958069,-105.641098022461,13.6349964141846,3813
1,-30,1,1,0,1,PERTURBATION,0,ROTATION,1.28010201454163,-90,-59.6364235891123,30.3635764108877,70,127,msl000517,v3,0.989410161972046,3.877357006073,26.1894750595093,20.9747219085693,3893
1,-30,1,1,0,1,PERTURBATION,0,ROTATION,0.482528924942017,180,-152.416520555124,27.5834794448759,70,128,msl000517,v3,0.918120145797729,5.97412395477295,-59.4734144210815,16.6376113891602,3893
1,0,1,1,0,1,PERTURBATION,0,ROTATION,0.333178043365479,90,142.145128092273,52.1451280922727,70,129,msl000517,v3,0.138126134872437,4.01008915901184,-149.139790534973,11.2996292114258,3893
1,0,1,1,0,1,PERTURBATION,0,ROTATION,0.0484590530395508,135,120.137254249805,-14.8627457501954,70,130,msl000517,v3,1.4300708770752,4.67004299163818,-155.517868995667,16.6376113891602,3893
1,0,1,1,0,1,PERTURBATION,0,ROTATION,0.610000848770142,180,177.294730529203,-2.70526947079679,70,131,msl000517,v3,0.370419025421143,2.45046591758728,-97.6733493804932,32.9851818084717,3961
1,0,1,1,0,1,PERTURBATION,0,ROTATION,0.138461112976074,-135,-140.763121849353,-5.76312184935256,70,132,msl000517,v3,0.307430982589722,2.91544604301453,-49.170298576355,19.3066024780273,4042
1,15,1,1,0,1,PERTURBATION,0,ROTATION,0.102299928665161,-90,-84.8486958489472,5.15130415105281,70,133,msl000517,v3,3.66792511940002,5.03591704368591,0,11.9668769836426,4042
1,15,1,1,0,1,PERTURBATION,0,ROTATION,0.573261976242065,45,26.2970205295214,-18.7029794704786,70,134,msl000517,v3,2.87334561347961,5.36137843132019,115.14937877655,68.3493137359619,4074
1,15,1,1,0,1,PERTURBATION,0,ROTATION,0.0811851024627686,-45,-65.6982236481941,-20.6982236481941,70,135,msl000517,v3,0.447559118270874,3.41559529304504,27.4847459793091,21.9755935668945,4153
1,15,1,1,0,1,PERTURBATION,0,ROTATION,0.0719430446624756,0,-4.032038178322,-4.032038178322,70,136,msl000517,v3,0.343106269836426,2.23113918304443,76.4882326126099,13.968620300293,4153
1,15,1,1,0,1,PERTURBATION,0,ROTATION,0.255568027496338,180,154.898476789176,-25.1015232108241,70,137,msl000517,v3,0.921838283538818,5.19388914108276,-114.187731742859,40.6585311889648,4213
1,15,1,1,0,1,PERTURBATION,0,ROTATION,0.909058094024658,45,29.2909400207546,-15.7090599792454,70,138,msl000517,v3,1.87292861938477,6.01693367958069,118.31880569458,64.0122032165527,4249
1,15,1,1,0,1,PERTURBATION,0,ROTATION,0.416424989700317,90,79.7865968956936,-10.2134031043064,70,139,msl000517,v3,0.435784578323364,3.18782949447632,-197.014818191528,38.6567878723145,4311
1,15,1,1,0,1,PERTURBATION,0,ROTATION,0.449227094650269,-45,-66.958649602312,-21.958649602312,70,140,msl000517,v3,0.258114576339722,6.09022045135498,29.9869251251221,30.6498146057129,4381
1,-45,1,1,0,1,PERTURBATION,0,ROTATION,0.705878973007202,135,114.227176533431,-20.7728234665688,70,141,msl000517,v3,14.8163487911224,22.3444197177887,-158.520483970642,45.9965133666992,4381
1,-45,1,1,0,1,PERTURBATION,0,ROTATION,0.564286947250366,0,43.5879292699305,43.5879292699305,70,142,msl000517,v3,6.3854284286499,10.1614146232605,134.87241268158,72.6864242553711,4409
1,-45,1,1,0,1,PERTURBATION,0,ROTATION,0.276618957519531,-135,-93.3143864775475,41.6856135224525,70,143,msl000517,v3,0.247585773468018,4.08763575553894,-2.1293306350708,39.991283416748,4470
1,-45,1,1,0,1,PERTURBATION,0,ROTATION,0.582342147827148,-90,-48.0377574155404,41.9622425844596,70,144,msl000517,v3,0.357065200805664,4.74911904335022,39.367618560791,28.3144474029541,4542
1,-45,1,1,0,1,PERTURBATION,0,ROTATION,0.496708869934082,90,140.472447962023,50.4724479620233,70,145,msl000517,v3,0.499273777008057,4.58728289604187,-135.628023147583,13.968620300293,4629
1,-45,1,1,0,1,PERTURBATION,0,ROTATION,0.874815940856934,-90,-36.5771350630076,53.4228649369924,70,146,msl000517,v3,0.152183055877686,3.95214700698853,40.201678276062,12.300500869751,4629
1,-45,1,1,0,1,PERTURBATION,0,ROTATION,1.16479110717773,45,78.1384101449729,33.1384101449729,70,147,msl000517,v3,0.162310600280762,3.95430755615234,165.860209465027,28.6480712890625,4701
1,-45,1,1,0,1,PERTURBATION,0,ROTATION,0.11688494682312,-45,2.77918700870997,47.77918700871,70,148,msl000517,v3,0.354348659515381,3.53835964202881,86.3693618774414,21.6419696807861,4780
1,60,1,1,0,1,PERTURBATION,0,ROTATION,0.162698984146118,-135,-91.1223417909896,43.8776582090104,70,149,msl000517,v3,0.259775876998901,6.31579780578613,1.37372016906738,15.636739730835,4780
1,60,1,1,0,1,PERTURBATION,0,ROTATION,0.204437017440796,180,139.13938601736,-40.86061398264,70,150,msl000517,v3,2.07458567619324,6.37063550949097,-133.037481307983,55.004358291626,4825
1,60,1,1,0,1,PERTURBATION,0,ROTATION,0.665127992630005,135,98.1610014639846,-36.8389985360154,70,151,msl000517,v3,0.339997291564941,3.76398324966431,-135,90.0348663330078,4835
1,60,1,1,0,1,PERTURBATION,0,ROTATION,0.329145193099976,0,-64.4907351580789,-64.4907351580789,70,152,msl000517,v3,2.40097260475159,11.0170435905457,28.9468288421631,39.6576595306397,4896
1,60,1,1,0,1,PERTURBATION,0,ROTATION,0.302057027816772,-135,153.515697901302,-71.4843020986981,70,153,msl000517,v3,0.109496831893921,4.56547594070435,-108.054914474487,24.6445846557617,4896
1,60,1,1,0,1,PERTURBATION,0,ROTATION,0.0952801704406738,90,49.2559610609775,-40.7440389390225,70,154,msl000517,v3,0.579210996627808,4.79522299766541,-227.374591827393,20.9747219085693,4896
1,60,1,1,0,1,PERTURBATION,0,ROTATION,1.13070583343506,180,120.922147049992,-59.0778529500079,70,155,msl000517,v3,0.324624061584473,4.84469318389893,-154.889845848084,50,4946
1,60,1,1,0,1,PERTURBATION,0,ROTATION,0.233567953109741,0,-58.6384674508351,-58.6384674508351,70,156,msl000517,v3,0.691024303436279,4.36296534538269,32.1162557601929,28.9816951751709,5018
1,-15,1,1,0,1,PERTURBATION,0,ROTATION,0.145371913909912,135,64.7903309565039,-70.2096690434961,70,157,msl000517,v3,1.4860897064209,7.99814653396606,-202.392024993897,14.3022441864014,5018
1,-15,1,1,0,1,PERTURBATION,0,ROTATION,0.416507005691528,45,77.6764173642225,32.6764173642225,70,158,msl000517,v3,3.9285900592804,7.29663515090942,156.518740653992,50,5068
1,-15,1,1,0,1,PERTURBATION,0,ROTATION,0.0643761157989502,-45,-41.8726900610276,3.12730993897242,70,159,msl000517,v3,0.130116701126099,3.08212375640869,43.6655044555664,23.9773368835449,5145
1,-15,1,1,0,1,PERTURBATION,0,ROTATION,0.471520900726318,-90,-81.4142383947876,8.58576160521237,70,160,msl000517,v3,0.564833879470825,2.54079365730286,6.83928966522217,25.3118324279785,5220
1,-15,1,1,0,1,PERTURBATION,0,ROTATION,0.320618152618408,-135,-148.405218831032,-13.4052188310317,70,161,msl000517,v3,0.918514013290405,7.886559009552,-37.3266506195068,50,5220
1,-15,1,1,0,1,PERTURBATION,0,ROTATION,0.0970690250396729,45,63.0568651465197,18.0568651465198,70,162,msl000517,v3,1.52406048774719,3.94010853767395,153.182501792908,36.9886684417725,5284
1,-15,1,1,0,1,PERTURBATION,0,ROTATION,0.498924016952515,-90,-66.1431005869144,23.8568994130856,70,163,msl000517,v3,0.267014026641846,3.6270170211792,20.3510570526123,18.972978591919,5284
1,-15,1,1,0,1,PERTURBATION,0,ROTATION,0.130461931228638,180,-163.100354077525,16.8996459224754,70,164,msl000517,v3,0.888359069824219,3.64843916893005,-75.3205490112305,34.9869251251221,5284
1,30,1,1,0,1,PERTURBATION,0,ROTATION,0.482822895050049,0,21.849913726887,21.849913726887,70,165,msl000517,v3,0.478383302688599,2.71043038368225,107.181630134583,7.296142578125,5284
1,30,1,1,0,1,PERTURBATION,0,ROTATION,0.52894401550293,135,117.364920097966,-17.6350799020341,70,166,msl000517,v3,3.94004106521606,9.57204413414001,-167.19470500946,67.6820659637451,5317
1,30,1,1,0,1,PERTURBATION,0,ROTATION,0.0823049545288086,90,36.2229973683821,-53.7770026316179,70,167,msl000517,v3,0.0705618858337402,3.31060385704041,-230.710830688477,29.9825668334961,5317
1,30,1,1,0,1,PERTURBATION,0,ROTATION,0.425348997116089,-45,-78.9050832146853,-33.9050832146853,70,168,msl000517,v3,0.260929346084595,2.99687123298645,16.1415338516235,37.6559162139893,5380
1,30,1,1,0,1,PERTURBATION,0,ROTATION,0.44174599647522,-135,-158.343063803341,-23.3430638033414,70,169,msl000517,v3,0.290798664093018,3.5227837562561,-79.1964483261108,10.9660053253174,5380
1,30,1,1,0,1,PERTURBATION,0,ROTATION,0.829657077789307,180,141.259643070502,-38.7403569294976,70,170,msl000517,v3,0.0298705101013184,3.06990957260132,-131.536173820496,7.6297664642334,5380
1,30,1,1,0,1,PERTURBATION,0,ROTATION,0.582563877105713,-45,-81.2494259724435,-36.2494259724435,70,171,msl000517,v3,0.367510795593262,5.5594687461853,9.63586807250977,12.300500869751,5468
1,30,1,1,0,1,PERTURBATION,0,ROTATION,0.589319944381714,135,118.746364633232,-16.253635366768,70,172,msl000517,v3,0.340227842330933,4.21221303939819,-172.199063301086,17.9721069335938,5468
1,-60,1,1,0,1,PERTURBATION,0,ROTATION,0.591056108474731,0,-58.2343151596424,-58.2343151596424,70,173,msl000517,v3,0.256439447402954,5.73648357391357,37.6210498809815,65.0130748748779,5468
1,-60,1,1,0,1,PERTURBATION,0,ROTATION,0.537086963653565,-90,-32.0678229319517,57.9321770680483,70,174,msl000517,v3,3.059974193573,6.8279402256012,61.7204189300537,76.0226631164551,5492
1,-60,1,1,0,1,PERTURBATION,0,ROTATION,0.437618017196655,90,143.905088803625,53.9050888036245,70,175,msl000517,v3,3.10024356842041,7.876300573349,-114.609718322754,43.6611461639404,5549
1,-60,1,1,0,1,PERTURBATION,0,ROTATION,0.455941915512085,45,133.650511252961,88.650511252961,70,176,msl000517,v3,0.362853050231934,6.70685505867004,215.403356552124,35.3205490112305,5549
1,-60,1,1,0,1,PERTURBATION,0,ROTATION,0.325618982315064,-45,-13.1239624667238,31.8760375332762,70,177,msl000517,v3,0.32617449760437,3.59015941619873,84.7012424468994,62.6777076721191,5587
1,-60,1,1,0,1,PERTURBATION,0,ROTATION,0.358639001846314,-90,-8.35045153036716,81.6495484696328,70,178,msl000517,v3,0.0311684608459473,3.95125246047974,68.8933324813843,37.9895401000977,5587
1,-60,1,1,0,1,PERTURBATION,0,ROTATION,0.406758069992065,-135,-84.8855291415509,50.1144708584491,70,179,msl000517,v3,0.69408392906189,5.44610190391541,0.539660453796387,65.6803226470947,5622
1,-60,1,1,0,1,PERTURBATION,0,ROTATION,0.403836965560913,45,120.742740234873,75.7427402348729,70,180,msl000517,v3,0.439610004425049,5.62367796897888,194.385051727295,33.9860534667969,5689
1,0,1,1,0,1,PERTURBATION,0,ROTATION,0.302244901657105,0,57.0695882147896,57.0695882147896,70,181,msl000517,v3,0.347387552261353,6.25145649909973,137.541403770447,31.3170623779297,5689
1,0,1,1,0,1,PERTURBATION,0,ROTATION,0.0958690643310547,135,127.615885633399,-7.38411436660081,70,182,msl000517,v3,3.31681299209595,6.36480307579041,-144.341468811035,36.6550445556641,5753
1,0,1,1,0,1,PERTURBATION,0,ROTATION,0.354598999023438,90,97.8281255729342,7.82812557293423,70,183,msl000517,v3,0.399694681167603,3.79961490631104,-180.834059715271,24.3109607696533,5829
1,0,1,1,0,1,PERTURBATION,0,ROTATION,0.463693141937256,180,-175.792729421553,4.20727057844721,70,184,msl000517,v3,0.455531597137451,3.33548665046692,-97.0061016082764,27.6471996307373,5829
1,45,1,1,0,1,PERTURBATION,0,ROTATION,0.509284019470215,0,-6.62419234774063,-6.62419234774063,70,185,msl000517,v3,2.1687068939209,4.36874198913574,83.327522277832,21.3083457946777,5829
1,45,1,1,0,1,PERTURBATION,0,ROTATION,0.430445909500122,-45,-88.112011740627,-43.112011740627,70,186,msl000517,v3,1.03440523147583,3.86645126342773,12.8052949905396,66.0139465332031,5863
1,45,1,1,0,1,PERTURBATION,0,ROTATION,0.0798690319061279,180,142.04700488952,-37.9529951104799,70,187,msl000517,v3,0.936254739761353,4.1442449092865,-128.199934959412,34.9869251251221,5929
1,45,1,1,0,1,PERTURBATION,0,ROTATION,0.0900468826293945,90,45.6710608794518,-44.3289391205482,70,188,msl000517,v3,0.487530708312988,3.51149582862854,-218.199934959412,16.6376113891602,6013
1,45,1,1,0,1,PERTURBATION,0,ROTATION,0.479460000991821,-135,-175.022438745092,-40.0224387450919,70,189,msl000517,v3,0.38122820854187,3.63722634315491,-88.537917137146,16.9712352752686,6097
1,45,1,1,0,1,PERTURBATION,0,ROTATION,0.488580942153931,-90,-154.367846572863,-64.3678465728627,70,190,msl000517,v3,0.28247594833374,6.17049384117127,-39.8680543899536,18.972978591919,6097
1,45,1,1,0,1,PERTURBATION,0,ROTATION,0.198028802871704,135,124.338701066528,-10.6612989334723,70,191,msl000517,v3,0.323118686676025,2.84310364723206,-158.854107856751,67.3484420776367,6097
1,45,1,1,0,1,PERTURBATION,0,ROTATION,0.236598014831543,45,-16.3623031223514,-61.3623031223514,70,192,msl000517,v3,0.217129230499268,4.39313507080078,77.6166915893555,64.3458271026611,6133
1,-30,1,1,0,1,PERTURBATION,0,ROTATION,0.409288883209229,135,107.272462693864,-27.7275373061359,70,193,msl000517,v3,0.304636001586914,3.92856097221375,-173.366746902466,73.0200481414795,6133
1,-30,1,1,0,1,PERTURBATION,0,ROTATION,0.0393269062042236,0,37.9292645560897,37.9292645560897,70,194,msl000517,v3,0.046858549118042,3.95090556144714,114.187731742859,73.0200481414795,6160
1,-30,1,1,0,1,PERTURBATION,0,ROTATION,0.466450929641724,-90,-63.6523371692379,26.3476628307621,70,195,msl000517,v3,0.420294523239136,3.39633965492249,19.5169973373413,59.3414688110352,6201
1,-30,1,1,0,1,PERTURBATION,0,ROTATION,0.0627679824829102,-135,-117.172523605753,17.8274763942469,70,196,msl000517,v3,0.342235326766968,3.73426628112793,-16.6419696807861,28.9816951751709,6273
1,-30,1,1,0,1,PERTURBATION,0,ROTATION,0.187843084335327,90,138.353841175531,48.3538411755311,70,197,msl000517,v3,1.96251440048218,8.00259041786194,-135.628023147583,25.9790802001953,6273
1,-30,1,1,0,1,PERTURBATION,0,ROTATION,0.45760703086853,45,75.9383615574223,30.9383615574223,70,198,msl000517,v3,0.370872259140015,4.7548131942749,163.19121837616,20.3074741363525,6353
1,-30,1,1,0,1,PERTURBATION,0,ROTATION,0.0793619155883789,180,-145.963648405481,34.0363515945188,70,199,msl000517,v3,0.763937473297119,4.0038845539093,-56.470799446106,18.972978591919,6353
1,-30,1,1,0,1,PERTURBATION,0,ROTATION,0.371930122375488,-45,-23.0226590337813,21.9773409662187,70,200,msl000517,v3,0.252058506011963,4.06807661056519,85.5353021621704,8.96426200866699,6353
1,15,1,1,0,1,PERTURBATION,0,ROTATION,0.375468015670776,-135,-103.243291674992,31.7567083250077,70,201,msl000517,v3,0.400745868682861,4.01674604415894,-6.96687698364258,8.96426200866699,6353
1,15,1,1,0,1,PERTURBATION,0,ROTATION,0.237007141113281,-90,-115.646116540842,-25.6461165408422,70,202,msl000517,v3,0.349363803863525,2.60535883903503,-9.84190464019775,25.3118324279785,6428
1,15,1,1,0,1,PERTURBATION,0,ROTATION,0.535383939743042,90,94.4088949390772,4.40889493907717,70,203,msl000517,v3,0.687735557556152,2.18371868133545,-180,64.0122032165527,6464
1,15,1,1,0,1,PERTURBATION,0,ROTATION,0.133571147918701,45,21.6614409725464,-23.3385590274536,70,204,msl000517,v3,1.57819652557373,3.65819954872131,117.651557922363,70.0174331665039,6494
1,15,1,1,0,1,PERTURBATION,0,ROTATION,0.0534529685974121,180,171.214092179751,-8.78590782024864,70,205,msl000517,v3,0.403804779052734,3.11578798294067,-101.343212127686,36.6550445556641,6558
1,15,1,1,0,1,PERTURBATION,0,ROTATION,0.055811882019043,135,124.654886452594,-10.3451135474058,70,206,msl000517,v3,0.362915277481079,3.45088624954224,-150.847134590149,25.9790802001953,6633
1,15,1,1,0,1,PERTURBATION,0,ROTATION,0.0973310470581055,0,-25.6956334578938,-25.6956334578938,70,207,msl000517,v3,0.0276603698730469,2.18762135505676,70.3161907196045,14.6358680725098,6633
1,15,1,1,0,1,PERTURBATION,0,ROTATION,0.285896062850952,-45,-48.8680079644405,-3.86800796444049,70,208,msl000517,v3,0.358999490737915,2.4950156211853,31.8218564987183,21.3083457946777,6712
1,-45,1,1,0,1,PERTURBATION,0,ROTATION,0.408792018890381,-45,-78.5443528568239,-33.5443528568239,70,209,msl000517,v3,0.563996076583862,14.3561129570007,27.3179340362549,61.676836013794,6712
1,-45,1,1,0,1,PERTURBATION,0,ROTATION,0.292255878448486,-90,-43.2951565864026,46.7048434135975,70,210,msl000517,v3,0.459703922271729,4.00372886657715,55.8820009231567,75.3554153442383,6737
1,-45,1,1,0,1,PERTURBATION,0,ROTATION,0.315567970275879,-135,-77.2543508543115,57.7456491456886,70,211,msl000517,v3,0.277103662490845,3.56513071060181,14.5518636703491,34.9869251251221,6803
1,-45,1,1,0,1,PERTURBATION,0,ROTATION,0.297214984893799,90,144.751029001101,54.7510290011009,70,212,msl000517,v3,0.334946155548096,3.66295623779297,-133.12584400177,66.0139465332031,6837
1,-45,1,1,0,1,PERTURBATION,0,ROTATION,0.194221973419189,180,-131.923570500398,48.0764294996018,70,213,msl000517,v3,12.5747230052948,16.6386768817902,-37.9546737670898,78.6916542053223,6837
1,-45,1,1,0,1,PERTURBATION,0,ROTATION,0.321259021759033,0,51.2351384302923,51.2351384302923,70,214,msl000517,v3,0.290230989456177,3.86618900299072,137.541403770447,20.6410980224609,6917
1,-45,1,1,0,1,PERTURBATION,0,ROTATION,0.388098001480103,45,48.3929274957169,3.3929274957169,70,215,msl000517,v3,0.00453543663024902,3.36465859413147,180.706472396851,16.3039875030518,6917
1,-45,1,1,0,1,PERTURBATION,0,ROTATION,0.44008994102478,135,-111.606374804018,113.393625195983,70,216,msl000517,v3,0.0161798000335693,6.1442437171936,-22.9023742675781,73.6872959136963,6917
1,60,1,1,0,1,PERTURBATION,0,ROTATION,0.42845892906189,0,74.1524789630464,74.1524789630464,70,217,msl000517,v3,0.447959899902344,5.663978099823,143.713445663452,63.0113315582275,6917
1,60,1,1,0,1,PERTURBATION,0,ROTATION,0.460633993148804,-45,-104.541430924345,-59.5414309243455,70,218,msl000517,v3,1.16425585746765,4.93229389190674,-8.04619789123535,66.6811943054199,6951
1,60,1,1,0,1,PERTURBATION,0,ROTATION,0.411494970321655,180,132.817730636064,-47.1822693639357,70,219,msl000517,v3,0.151866912841797,3.53580093383789,-143.880257606506,26.6463279724121,7025
1,60,1,1,0,1,PERTURBATION,0,ROTATION,0.466140031814575,135,69.4982914367546,-65.5017085632454,70,220,msl000517,v3,0.295812606811523,4.42392253875732,-211.233057975769,39.991283416748,7086
1,60,1,1,0,1,PERTURBATION,0,ROTATION,0.476976156234741,-90,-142.248173152876,-52.2481731528756,70,221,msl000517,v3,2.36086702346802,5.39288187026978,-52.0453262329102,23.6437129974365,7163
1,60,1,1,0,1,PERTURBATION,0,ROTATION,0.349342107772827,45,-14.0343751328545,-59.0343751328545,70,222,msl000517,v3,0.273797035217285,3.88177299499512,74.2804527282715,19.9738502502441,7244
1,60,1,1,0,1,PERTURBATION,0,ROTATION,0.438796043395996,90,28.9816386005146,-61.0183613994854,70,223,msl000517,v3,0.0370283126831055,3.42905926704407,-237.21649646759,14.9694919586182,7330
1,60,1,1,0,1,PERTURBATION,0,ROTATION,0.444134950637817,-135,171.389357798909,-53.6106422010909,70,224,msl000517,v3,0.292721748352051,3.78066158294678,-101.382436752319,11.6332530975342,7330
1,-15,1,1,0,1,PERTURBATION,0,ROTATION,0.4444580078125,135,87.9496522862858,-47.0503477137142,70,225,msl000517,v3,0.429914474487305,3.94991040229797,-200.5570936203,8.63063812255859,7330
1,-15,1,1,0,1,PERTURBATION,0,ROTATION,0.349883079528809,-135,-142.526696589171,-7.52669658917068,70,226,msl000517,v3,0.452472686767578,3.34045672416687,-48.336238861084,44.995641708374,7330
1,-15,1,1,0,1,PERTURBATION,0,ROTATION,0.257751941680908,0,13.0076207182952,13.0076207182952,70,227,msl000517,v3,0.195764780044556,2.7877688407898,105.680322647095,42.3266506195068,7388
1,-15,1,1,0,1,PERTURBATION,0,ROTATION,0.426712036132813,-45,-36.6103294302678,8.3896705697322,70,228,msl000517,v3,0.0352647304534912,2.74723172187805,61.1807584762573,18.3057308197021,7470
1,-15,1,1,0,1,PERTURBATION,0,ROTATION,0.426948070526123,90,122.462003944658,32.462003944658,70,229,msl000517,v3,0.217107772827148,2.37711381912231,-159.815754890442,17.304859161377,7470
1,-15,1,1,0,1,PERTURBATION,0,ROTATION,0.0500941276550293,180,-179.922019533608,0.0779804663916366,70,230,msl000517,v3,0.283714294433594,2.11567044258118,-98.1737852096558,22.6428413391113,7470
1,-15,1,1,0,1,PERTURBATION,0,ROTATION,0.406229972839355,-90,-89.5182469778582,0.481753022141831,70,231,msl000517,v3,0.279805898666382,2.36788201332092,7.84016132354736,62.6777076721191,7508
1,-15,1,1,0,1,PERTURBATION,0,ROTATION,0.358278036117554,45,65.1244134956599,20.1244134956599,70,232,msl000517,v3,0.153818368911743,2.40984845161438,150.680322647095,38.9904117584229,7570
1,30,1,1,0,1,PERTURBATION,0,ROTATION,0.33386492729187,-90,-74.3603078796321,15.6396921203679,70,233,msl000517,v3,0.23866605758667,3.10268497467041,13.1781435012817,55.3379821777344,7570
1,30,1,1,0,1,PERTURBATION,0,ROTATION,0.354251146316528,-45,-79.6826793902858,-34.6826793902858,70,234,msl000517,v3,0.74846625328064,2.77239227294922,19.8113965988159,76.3562870025635,7594
1,30,1,1,0,1,PERTURBATION,0,ROTATION,0.440104961395264,90,65.902397603584,-24.097602396416,70,235,msl000517,v3,0.244420528411865,5.05243158340454,-209.525713920593,51.0008716583252,7643
1,30,1,1,0,1,PERTURBATION,0,ROTATION,0.323288917541504,135,105.875434987242,-29.1245650127584,70,236,msl000517,v3,0.574510812759399,5.71053290367127,-175.034866333008,22.6428413391113,7721
1,30,1,1,0,1,PERTURBATION,0,ROTATION,0.17993688583374,45,-11.8840737718554,-56.8840737718554,70,237,msl000517,v3,0.198458909988403,3.55848908424377,90.7948350906372,13.6349964141846,7721
1,30,1,1,0,1,PERTURBATION,0,ROTATION,0.0624198913574219,-135,-160.016518317291,-25.0165183172912,70,238,msl000517,v3,0.285943984985352,2.58189201354981,-65.8514928817749,21.3083457946777,7800
1,30,1,1,0,1,PERTURBATION,0,ROTATION,0.380966901779175,180,162.948045257234,-17.0519547427659,70,239,msl000517,v3,0.375730752944946,3.75974273681641,-115.188603401184,14.3022441864014,7800
1,30,1,1,0,1,PERTURBATION,0,ROTATION,0.461663961410523,0,-46.9879057687049,-46.9879057687049,70,240,msl000517,v3,0.282032251358032,3.0180253982544,54.9694919586182,13.968620300293,7800
0,0,1,1,0,0,BASELINE,0,NONE,0.921748876571655,180,178.710016275684,-1.28998372431633,70,1,msl000518,v3,0,0,0,0,0
0,0,1,1,0,0,BASELINE,0,NONE,0.193717956542969,0,5.4430874837157,5.4430874837157,70,2,msl000518,v3,0,0,0,0,0
0,0,1,1,0,0,BASELINE,0,NONE,0.12012791633606,45,47.9585402752222,2.95854027522218,70,3,msl000518,v3,0,0,0,0,0
0,0,1,1,0,0,BASELINE,0,NONE,0.138560056686401,135,132.440696977868,-2.55930302213218,70,4,msl000518,v3,0,0,0,0,0
0,0,1,1,0,0,BASELINE,0,NONE,0.131549119949341,90,89.1765757079944,-0.823424292005569,70,5,msl000518,v3,0,0,0,0,0
0,0,1,1,0,0,BASELINE,0,NONE,0.0930869579315186,-90,-90.5592664428701,-0.559266442870054,70,6,msl000518,v3,0,0,0,0,0
0,0,1,1,0,0,BASELINE,0,NONE,0.0799298286437988,-45,-31.9794120895638,13.0205879104362,70,7,msl000518,v3,0,0,0,0,0
0,0,1,1,0,0,BASELINE,0,NONE,0.09568190574646,-135,-151.130742069045,-16.1307420690451,70,8,msl000518,v3,0,0,0,0,0
0,0,1,1,0,0,BASELINE,0,NONE,0.206820011138916,90,88.1812484453877,-1.81875155461231,70,9,msl000518,v3,0,0,0,0,0
0,0,1,1,0,0,BASELINE,0,NONE,0.112779140472412,135,143.916062766777,8.91606276677734,70,10,msl000518,v3,0,0,0,0,0
0,0,1,1,0,0,BASELINE,0,NONE,0.0826590061187744,-135,-137.030180680467,-2.0301806804672,70,11,msl000518,v3,0,0,0,0,0
0,0,1,1,0,0,BASELINE,0,NONE,0.513644933700562,45,50.6436399682791,5.64363996827914,70,12,msl000518,v3,0,0,0,0,0
0,0,1,1,0,0,BASELINE,0,NONE,0.047806978225708,-45,-33.2851593055291,11.7148406944709,70,13,msl000518,v3,0,0,0,0,0
0,0,1,1,0,0,BASELINE,0,NONE,0.150457859039307,-90,-88.9714826673439,1.02851733265612,70,14,msl000518,v3,0,0,0,0,0
0,0,1,1,0,0,BASELINE,0,NONE,0.0999410152435303,0,4.76981964244011,4.76981964244011,70,15,msl000518,v3,0,0,0,0,0
0,0,1,1,0,0,BASELINE,0,NONE,0.555455923080444,180,-177.373688978672,2.62631102132764,70,16,msl000518,v3,0,0,0,0,0
0,0,1,1,1,1,BASELINE_AIM,1,NONE,2.96293807029724,-135,-136.444707880088,-1.4447078800878,70,17,msl000518,v3,12.8269896507263,0,-44.8331882476807,1,0
0,0,1,1,0,1,BASELINE_AIM,0,NONE,0.469462156295776,135,144.831387639842,9.83138763984209,70,18,msl000518,v3,2.53799510002136,7.77006006240845,-135.333623504639,22.6428726196288,78
0,0,1,1,0,1,BASELINE_AIM,0,NONE,0.13615608215332,-90,-90.4636772853364,-0.463677285336374,70,19,msl000518,v3,2.48923945426941,9.04130434989929,-0.834058761596681,32.651577758789,146
0,0,1,1,0,1,BASELINE_AIM,0,NONE,0.488825082778931,180,176.266031793971,-3.73396820602869,70,20,msl000518,v3,0.00224065780639648,2.67423748970032,-90,25.9791076660155,221
0,0,1,1,0,1,BASELINE_AIM,0,NONE,0.161861181259155,-45,-37.8702503014769,7.12974969852312,70,21,msl000518,v3,0.0910425186157227,3.77106857299805,45,23.3101196289061,298
0,0,1,1,0,1,BASELINE_AIM,0,NONE,0.646231889724731,90,91.0411397977975,1.04113979779753,70,22,msl000518,v3,3.46387600898743,6.71984601020813,-180.166811752319,15.303155517578,383
0,0,1,1,0,1,BASELINE_AIM,0,NONE,0.501429080963135,0,-2.94623246684012,-2.94623246684012,70,23,msl000518,v3,0.496444702148438,3.74443674087524,90,28.9817192077636,455
0,0,1,1,0,1,BASELINE_AIM,0,NONE,0.49448299407959,45,48.406456280976,3.40645628097603,70,24,msl000518,v3,1.97355937957764,4.35753846168518,135,20.6411315917968,535
0,0,1,1,0,1,BASELINE_AIM,0,NONE,0.111595153808594,45,48.7342134926163,3.73421349261628,70,25,msl000518,v3,0.736067533493042,2.72804546356201,135,9.63155593872057,626
0,0,1,1,0,1,BASELINE_AIM,0,NONE,0.277124166488647,-90,-102.853905390531,-12.8539053905308,70,26,msl000518,v3,0.493104457855225,2.51702952384949,0,1,626
0,0,1,1,0,1,BASELINE_AIM,0,NONE,0.584722995758057,90,93.7777086903101,3.77770869031014,70,27,msl000518,v3,0.511889457702637,3.91990041732788,-189.508269882203,19.6402610778807,707
0,0,1,1,0,1,BASELINE_AIM,0,NONE,0.200650930404663,0,-3.55675634794417,-3.55675634794417,70,28,msl000518,v3,0.954092025756836,2.68203496932983,90,1,707
0,0,1,1,0,1,BASELINE_AIM,0,NONE,0.672321081161499,135,136.408534251542,1.40853425154165,70,29,msl000518,v3,0.526750802993774,2.31075596809387,-135,1,707
0,0,1,1,0,1,BASELINE_AIM,0,NONE,0.53087306022644,-135,-140.710296693769,-5.7102966937685,70,30,msl000518,v3,0.0939538478851318,3.06192970275879,-51.6724700927733,5.29445037841784,707
0,0,1,1,0,1,BASELINE_AIM,0,NONE,0.461520910263062,180,-170.744314252312,9.25568574768772,70,31,msl000518,v3,0.50264048576355,3.47860836982727,-90,1,707
0,0,1,1,0,1,BASELINE_AIM,0,NONE,0.546503067016602,-45,-39.4225759283114,5.57742407168858,70,32,msl000518,v3,0.724501132965088,4.2844762802124,33.6568008422854,1,707
1,-60,1,1,0,1,PERTURBATION,0,ROTATION,0.581038951873779,45,40.5281958232488,-4.4718041767512,70,33,msl000518,v3,1.86923217773438,6.07725214958191,122.155495071411,1,707
1,-60,1,1,0,1,PERTURBATION,1,ROTATION,0.200428009033203,-90,-147.863255500023,-57.8632555000225,70,34,msl000518,v3,1.18491530418396,4.2729012966156,-31.8610446929933,29.6489662170409,707
1,-60,1,1,0,1,PERTURBATION,1,ROTATION,0.720105171203613,180,-148.442416975757,31.5575830242426,70,35,msl000518,v3,0.38182544708252,8.63791346549988,-27.946028137208,1,707
1,-60,1,1,0,1,PERTURBATION,1,ROTATION,0.771316051483154,90,46.7802074850465,-43.2197925149535,70,36,msl000518,v3,0.143007755279541,3.61498665809631,-180,78.0243743896483,707
1,-60,1,1,0,1,PERTURBATION,1,ROTATION,2.00368213653564,0,-161.996585827953,-161.996585827953,70,37,msl000518,v3,0.914065361022949,3.16199445724487,90,84.0295974731443,707
1,-60,1,1,0,1,PERTURBATION,0,ROTATION,0.305423021316528,135,146.843945376138,11.843945376138,70,38,msl000518,v3,0.571428775787354,2.57139372825623,-135,89.3675735473629,707
1,-60,1,1,0,1,PERTURBATION,1,ROTATION,0.719321012496948,-45,149.512990634401,-165.487009365599,70,39,msl000518,v3,0.187371730804443,5.29132652282715,8.13460273742687,100,707
1,-60,1,1,0,1,PERTURBATION,1,ROTATION,0.507015943527222,-135,-131.7117034885,3.28829651150005,70,40,msl000518,v3,0.440409183502197,2.45642614364624,-45,100,707
1,45,1,1,0,1,PERTURBATION,0,ROTATION,0.786667823791504,45,160.36300602049,115.36300602049,70,41,msl000518,v3,3.38702821731567,6.08304834365845,135,86.6985855102536,707
1,45,1,1,0,1,PERTURBATION,0,ROTATION,0.643256902694702,0,92.1759930873102,92.1759930873102,70,42,msl000518,v3,2.47226095199585,10.8243598937988,179.244287490848,75.6890098571776,707
1,45,1,1,0,1,PERTURBATION,0,ROTATION,1.60400485992432,-90,42.3274923770029,132.327492377003,70,43,msl000518,v3,9.7209095954895,17.6010336875916,135.784766387938,92.0365615844722,707
1,45,1,1,0,1,PERTURBATION,0,ROTATION,0.829777956008911,-135,52.6318741570787,-172.368125842921,70,44,msl000518,v3,1.04721331596374,8.26323437690735,141.161915588378,71.0182807922363,707
1,45,1,1,0,1,PERTURBATION,0,ROTATION,0.757572174072266,135,-132.37100851957,92.6289914804296,70,45,msl000518,v3,0.749373197555542,7.92544603347778,-31.0762783050549,90.0348205566402,707
1,45,1,1,0,1,PERTURBATION,1,ROTATION,0.434364080429077,90,93.9767103814619,3.97671038146194,70,46,msl000518,v3,1.42363500595093,3.38354301452637,-180,97.0409141540522,707
1,45,1,1,0,1,PERTURBATION,1,ROTATION,1.09392595291138,180,139.319492235899,-40.6805077641012,70,47,msl000518,v3,0.392885446548462,2.15284943580627,-90,93.3710556030269,707
1,45,1,1,0,1,PERTURBATION,0,ROTATION,0.660406112670898,-45,-16.2619610033536,28.7380389966464,70,48,msl000518,v3,2.07321500778198,5.017174243927,45,100,707
1,-30,1,1,0,1,PERTURBATION,0,ROTATION,0.703015089035034,-45,-64.363089034178,-19.3630890341779,70,49,msl000518,v3,0.513802766799927,5.25779390335083,9.46909675598157,100,707
1,-30,1,1,0,1,PERTURBATION,1,ROTATION,0.813551902770996,-135,-111.916574435701,23.0834255642993,70,50,msl000518,v3,1.65273094177246,3.53270292282105,-45,88.3667030334469,707
1,-30,1,1,0,1,PERTURBATION,0,ROTATION,0.762624025344849,0,19.4989162375442,19.4989162375442,70,51,msl000518,v3,0.681810140609741,4.70583415031433,116.689880371093,87.0322090148923,720
1,-30,1,1,0,1,PERTURBATION,0,ROTATION,0.639932870864868,-90,-55.4403531387346,34.5596468612654,70,52,msl000518,v3,0.437750339508057,3.32572650909424,26.0226333618165,92.3701850891109,728
1,-30,1,1,0,1,PERTURBATION,0,ROTATION,0.663130044937134,45,80.0900114529347,35.0900114529347,70,53,msl000518,v3,0.909597158432007,3.06959414482117,169.530032730105,50,778
1,-30,1,1,0,1,PERTURBATION,0,ROTATION,0.277391910552979,135,165.16702286558,30.1670228655795,70,54,msl000518,v3,0.943845748901367,4.61581873893738,-100.303155517578,71.0182807922363,807
1,-30,1,1,0,1,PERTURBATION,0,ROTATION,0.671663999557495,180,-157.347595062905,22.6524049370948,70,55,msl000518,v3,0.447507619857788,4.8954975605011,-56.8044612884527,50,807
1,-30,1,1,0,1,PERTURBATION,1,ROTATION,0.167229890823364,90,116.924553556463,26.9245535564627,70,56,msl000518,v3,0.393285274505615,3.79330134391785,-140.966049957273,50,807
1,0,1,1,0,1,PERTURBATION,1,ROTATION,0.51754903793335,90,135.420138496503,45.4201384965029,70,57,msl000518,v3,0.22758936882019,2.61956834793091,-151.141566848753,50,807
1,0,1,1,0,1,PERTURBATION,0,ROTATION,0.59661078453064,135,-171.01624392834,53.9837560716603,70,58,msl000518,v3,0.356240510940552,3.4922366142273,-79.1180629730228,50,807
1,0,1,1,0,1,PERTURBATION,1,ROTATION,0.591754913330078,-45,-33.9282097823361,11.0717902176639,70,59,msl000518,v3,0.597264528274536,1.38121938705444,45,50,807
1,0,1,1,0,1,PERTURBATION,1,ROTATION,0.574769020080566,45,42.2475960452093,-2.75240395479071,70,60,msl000518,v3,0.532455921173096,1.68440890312195,135,71.0182807922363,807
1,15,1,1,0,1,PERTURBATION,0,ROTATION,0.739650964736939,-90,-89.0416936398098,0.958306360190221,70,61,msl000518,v3,0.576874732971191,1.28089284896851,0,50,857
1,15,1,1,0,1,PERTURBATION,0,ROTATION,0.220494985580444,180,177.818705049358,-2.18129495064238,70,62,msl000518,v3,0.471223831176758,3.78321766853333,-73.6524482727054,50,907
1,15,1,1,0,1,PERTURBATION,0,ROTATION,0.186895847320557,0,1.51653664256667,1.51653664256667,70,63,msl000518,v3,0.499016284942627,2.89100313186646,114.521327590942,50,957
1,15,1,1,0,1,PERTURBATION,0,ROTATION,0.561659097671509,-135,-139.314034948097,-4.31403494809717,70,64,msl000518,v3,0.769122123718262,1.20914912223816,-45,50,1007
1,15,1,1,0,1,PERTURBATION,0,ROTATION,0.499173879623413,180,172.883159738052,-7.11684026194845,70,65,msl000518,v3,0.976871967315674,1.77683877944946,-90,50,1057
1,15,1,1,0,1,PERTURBATION,0,ROTATION,0.493431806564331,0,-1.99050487147786,-1.99050487147786,70,66,msl000518,v3,0.666888952255249,1.37889099121094,90,50,1107
1,15,1,1,0,1,PERTURBATION,0,ROTATION,0.554758787155151,-135,-140.237909302784,-5.23790930278346,70,67,msl000518,v3,3.34145069122315,5.06142973899841,-35.491730117798,50,1157
1,15,1,1,0,1,PERTURBATION,0,ROTATION,0.537126064300537,-90,-94.6360781261373,-4.63607812613732,70,68,msl000518,v3,0.277131795883179,2.085120677948,0,7.62981491088854,1250
1,-45,1,1,0,1,PERTURBATION,0,ROTATION,0.529287815093994,-45,-39.5547119444508,5.44528805554919,70,69,msl000518,v3,0.538071632385254,1.93010854721069,45,11.9669204711913,1250
1,-45,1,1,0,1,PERTURBATION,1,ROTATION,0.524127006530762,135,162.532335598034,27.5323355980341,70,70,msl000518,v3,1.28022265434265,4.36015152931213,-128.994776916504,83.3623504638669,1250
1,-45,1,1,0,1,PERTURBATION,0,ROTATION,0.621534109115601,90,70.2810857838818,-19.7189142161182,70,71,msl000518,v3,0.367446660995483,2.47142672538757,-213.36235046387,50,1250
1,-45,1,1,0,1,PERTURBATION,0,ROTATION,0.560478210449219,45,92.4459426527252,47.4459426527252,70,72,msl000518,v3,0.341869831085205,3.5818657875061,125.992165374755,94.3719261169429,1256
1,-45,1,1,0,1,PERTURBATION,1,ROTATION,0.124444961547852,0,49.681017715166,49.681017715166,70,73,msl000518,v3,0.372344017028809,5.14032292366028,143.546572494507,28.6480957031249,1256
1,-45,1,1,0,1,PERTURBATION,0,ROTATION,0.607316017150879,135,171.984944662827,36.984944662827,70,74,msl000518,v3,1.0629243850708,3.2709014415741,-93.9643089294435,50,1306
1,-45,1,1,0,1,PERTURBATION,1,ROTATION,0.215610027313232,180,-132.736951744079,47.2630482559207,70,75,msl000518,v3,0.335224151611328,5.20720911026001,-37.2874862670907,17.6385200500487,1306
1,-45,1,1,0,1,PERTURBATION,0,ROTATION,0.600456953048706,-135,-83.1959949603119,51.8040050396881,70,76,msl000518,v3,1.30360913276672,4.31158304214478,5.710772705078,26.9799781799315,1380
1,60,1,1,0,1,PERTURBATION,0,ROTATION,0.501303911209106,-90,-127.702313668864,-37.7023136688641,70,77,msl000518,v3,0.665458679199219,5.02543783187866,66.2242656707759,19.3066375732421,1380
1,60,1,1,0,1,PERTURBATION,0,ROTATION,0.532466888427734,-45,-36.6711145698464,8.32888543015359,70,78,msl000518,v3,0.648511409759522,2.22446060180664,45,4.29357986450182,1380
1,60,1,1,0,1,PERTURBATION,0,ROTATION,0.230981826782227,45,-5.7700596848641,-50.7700596848641,70,79,msl000518,v3,2.28637742996216,6.6703622341156,90.6280738830568,19.6402610778807,1461
1,60,1,1,0,1,PERTURBATION,1,ROTATION,0.218338012695313,90,26.9306247817713,-63.0693752182288,70,80,msl000518,v3,0.291043519973755,5.13104462623596,-228.54221992493,1,1461
1,60,1,1,0,1,PERTURBATION,0,ROTATION,0.645344018936157,180,132.002647047366,-47.9973529526341,70,81,msl000518,v3,1.06248807907104,6.03051614761353,-141.711643218994,11.6332969665526,1461
1,60,1,1,0,1,PERTURBATION,0,ROTATION,0.593725919723511,90,35.5173890255684,-54.4826109744316,70,82,msl000518,v3,0.538936614990234,6.49095463752747,-232.045266723636,33.652448272705,1528
1,60,1,1,0,1,PERTURBATION,0,ROTATION,0.506796836853027,45,-9.20009422031501,-54.200094220315,70,83,msl000518,v3,0.302678346633911,4.40674042701721,86.4577800750735,16.9712730407713,1612
1,60,1,1,0,1,PERTURBATION,1,ROTATION,0.506603002548218,135,69.0943568976175,-65.9056431023825,70,84,msl000518,v3,0.577560186386108,4.06553411483765,-185.043525695804,14.9695320129393,1612
1,-15,1,1,0,1,PERTURBATION,0,ROTATION,0.723295211791992,-45,-108.324936093057,-63.324936093057,70,85,msl000518,v3,1.01740217208862,3.84941506385803,-10.7151252746581,12.9677909851073,1612
1,-15,1,1,0,1,PERTURBATION,0,ROTATION,0.544646978378296,-135,-131.546122430055,3.45387756994472,70,86,msl000518,v3,0.774449110031128,2.15039730072021,-45,12.6341674804686,1700
1,-15,1,1,0,1,PERTURBATION,0,ROTATION,0.52055287361145,-90,-83.4657326794087,6.53426732059133,70,87,msl000518,v3,1.17899298667908,2.92300701141357,0,1,1700
1,-15,1,1,0,1,PERTURBATION,0,ROTATION,0.536818981170654,0,9.92606469348203,9.92606469348203,70,88,msl000518,v3,0.383660793304443,3.15163278579712,109.183351516723,10.9660499572753,1790
1,-15,1,1,0,1,PERTURBATION,0,ROTATION,0.536645174026489,180,170.114407581319,-9.88559241868091,70,89,msl000518,v3,0.734011650085449,5.05401468276978,-67.1467899322514,7.62981491088854,1790
1,-15,1,1,0,1,PERTURBATION,1,ROTATION,0.633291006088257,-135,-134.228517647417,0.771482352583007,70,90,msl000518,v3,0.33262825012207,3.34058427810669,-69.1877040863033,4.29357986450182,1790
